SYSTEM:Time.1(s)	Veh_SIP:vehicle.acc.x.2(m_s2)	Veh_SIP:vehicle.acc.y.3(m_s2)	Veh_SIP:vehicle.acc.z.4(m_s2)	Veh_SIP:vehicle.z.5(mm)
0.000	0.004	0.001	-0.002	1285.440
0.010	0.507	0.011	-0.744	1285.426
0.020	1.341	0.031	-1.100	1285.341
0.030	1.823	0.041	-1.061	1285.149
0.040	1.628	0.033	-0.733	1284.853
0.050	1.000	0.012	-0.295	1284.485
0.060	0.522	-0.009	0.067	1284.087
0.070	0.642	-0.018	0.218	1283.694
0.080	1.313	-0.013	0.116	1283.319
0.090	2.043	0.001	-0.183	1282.955
0.100	2.171	0.015	-0.543	1282.572
0.110	1.262	0.027	-0.785	1282.136
0.120	-0.533	0.037	-0.745	1281.625
0.130	-2.419	0.044	-0.340	1281.042
0.140	-3.463	0.046	0.392	1280.428
0.150	-3.217	0.035	1.282	1279.856
0.160	-1.991	0.011	2.077	1279.412
0.170	-0.519	-0.020	2.519	1279.173
0.180	0.535	-0.051	2.432	1279.183
0.190	0.882	-0.069	1.784	1279.430
0.200	0.611	-0.074	0.711	1279.852
0.210	0.108	-0.073	-0.511	1280.342
0.220	-0.216	-0.070	-1.558	1280.783
0.230	-0.208	-0.060	-2.163	1281.073
0.240	-0.023	-0.044	-2.196	1281.153
0.250	0.026	-0.020	-1.704	1281.017
0.260	-0.232	0.006	-0.887	1280.713
0.270	-0.668	0.027	-0.023	1280.320
0.280	-0.952	0.039	0.624	1279.924
0.290	-0.808	0.045	0.889	1279.588
0.300	-0.255	0.046	0.747	1279.338
0.310	0.412	0.044	0.301	1279.160
0.320	0.802	0.040	-0.267	1279.013
0.330	0.631	0.035	-0.745	1278.842
0.340	-0.108	0.029	-0.964	1278.601
0.350	-1.154	0.025	-0.846	1278.267
0.360	-2.164	0.021	-0.411	1277.852
0.370	-2.836	0.019	0.225	1277.400
0.380	-3.001	0.016	0.899	1276.976
0.390	-2.697	0.006	1.449	1276.642
0.400	-2.070	-0.014	1.736	1276.454
0.410	-1.261	-0.043	1.690	1276.437
0.420	-0.372	-0.077	1.315	1276.588
0.430	0.485	-0.105	0.694	1276.870
0.440	1.117	-0.124	-0.036	1277.220
0.450	1.358	-0.136	-0.705	1277.567
0.460	1.229	-0.133	-1.162	1277.845
0.470	0.944	-0.109	-1.312	1278.009
0.480	0.775	-0.066	-1.149	1278.045
0.490	0.855	-0.015	-0.751	1277.971
0.500	1.145	0.033	-0.242	1277.822
0.510	1.481	0.071	0.229	1277.647
0.520	1.673	0.097	0.529	1277.492
0.530	1.649	0.114	0.588	1277.388
0.540	1.486	0.121	0.415	1277.339
0.550	1.330	0.115	0.078	1277.331
0.560	1.271	0.099	-0.315	1277.331
0.570	1.261	0.080	-0.645	1277.301
0.580	1.131	0.066	-0.822	1277.208
0.590	0.704	0.064	-0.799	1277.035
0.600	-0.054	0.057	-0.578	1276.784
0.610	-0.917	0.045	-0.207	1276.477
0.620	-1.525	0.020	0.238	1276.150
0.630	-1.598	-0.015	0.658	1275.846
0.640	-1.108	-0.051	0.958	1275.607
0.650	-0.271	-0.087	1.066	1275.461
0.660	0.586	-0.120	0.952	1275.420
0.670	1.143	-0.140	0.643	1275.473
0.680	1.240	-0.139	0.217	1275.588
0.690	0.974	-0.119	-0.211	1275.725
0.700	0.609	-0.086	-0.524	1275.841
0.710	0.394	-0.043	-0.640	1275.906
0.720	0.377	-0.000	-0.544	1275.909
0.730	0.453	0.037	-0.284	1275.859
0.740	0.457	0.067	0.047	1275.779
0.750	0.290	0.092	0.327	1275.702
0.760	-0.002	0.110	0.456	1275.654
0.770	-0.256	0.117	0.384	1275.648
0.780	-0.342	0.114	0.125	1275.681
0.790	-0.285	0.107	-0.239	1275.727
0.800	-0.284	0.101	-0.591	1275.749
0.810	-0.563	0.095	-0.816	1275.714
0.820	-1.211	0.084	-0.833	1275.600
0.830	-2.077	0.061	-0.613	1275.409
0.840	-2.824	0.023	-0.192	1275.161
0.850	-3.095	-0.026	0.336	1274.899
0.860	-2.737	-0.077	0.840	1274.675
0.870	-1.885	-0.120	1.185	1274.538
0.880	-0.881	-0.145	1.275	1274.520
0.890	-0.087	-0.151	1.081	1274.630
0.900	0.296	-0.141	0.655	1274.846
0.910	0.303	-0.120	0.118	1275.126
0.920	0.161	-0.104	-0.381	1275.418
0.930	0.104	-0.090	-0.709	1275.673
0.940	0.221	-0.065	-0.795	1275.860
0.950	0.444	-0.024	-0.644	1275.969
0.960	0.622	0.026	-0.338	1276.014
0.970	0.653	0.069	-0.005	1276.024
0.980	0.567	0.097	0.229	1276.031
0.990	0.487	0.105	0.281	1276.059
1.000	0.524	0.098	0.131	1276.113
1.010	0.670	0.090	-0.163	1276.178
1.020	0.791	0.091	-0.493	1276.227
1.030	0.717	0.098	-0.737	1276.226
1.040	0.384	0.095	-0.805	1276.154
1.050	-0.129	0.068	-0.651	1276.005
1.060	-0.595	0.014	-0.291	1275.792
1.070	-0.747	-0.054	0.186	1275.551
1.080	-0.451	-0.109	0.654	1275.329
1.090	0.215	-0.131	0.981	1275.170
1.100	0.986	-0.119	1.072	1275.107
1.110	1.557	-0.090	0.899	1275.149
1.120	1.775	-0.067	0.516	1275.279
1.130	1.683	-0.068	0.031	1275.460
1.140	1.479	-0.083	-0.418	1275.645
1.150	1.373	-0.088	-0.710	1275.791
1.160	1.440	-0.059	-0.775	1275.868
1.170	1.586	0.001	-0.622	1275.869
1.180	1.642	0.065	-0.325	1275.807
1.190	1.506	0.103	-0.006	1275.712
1.200	1.233	0.103	0.221	1275.614
1.210	0.978	0.078	0.281	1275.535
1.220	0.865	0.055	0.160	1275.482
1.230	0.889	0.054	-0.090	1275.443
1.240	0.898	0.075	-0.372	1275.393
1.250	0.711	0.096	-0.577	1275.307
1.260	0.255	0.096	-0.628	1275.165
1.270	-0.390	0.065	-0.483	1274.963
1.280	-0.995	0.013	-0.162	1274.714
1.290	-1.307	-0.039	0.258	1274.450
1.300	-1.200	-0.066	0.668	1274.214
1.310	-0.748	-0.064	0.957	1274.045
1.320	-0.179	-0.045	1.047	1273.971
1.330	0.269	-0.028	0.914	1273.999
1.340	0.485	-0.024	0.600	1274.116
1.350	0.483	-0.033	0.189	1274.291
1.360	0.388	-0.042	-0.210	1274.487
1.370	0.336	-0.040	-0.496	1274.663
1.380	0.399	-0.022	-0.602	1274.793
1.390	0.532	0.009	-0.520	1274.862
1.400	0.622	0.038	-0.307	1274.879
1.410	0.594	0.051	-0.055	1274.864
1.420	0.474	0.043	0.142	1274.841
1.430	0.363	0.022	0.220	1274.830
1.440	0.347	0.005	0.159	1274.837
1.450	0.430	0.001	-0.012	1274.860
1.460	0.514	0.013	-0.221	1274.881
1.470	0.459	0.028	-0.382	1274.881
1.480	0.210	0.033	-0.424	1274.844
1.490	-0.156	0.023	-0.317	1274.766
1.500	-0.464	0.000	-0.076	1274.659
1.510	-0.521	-0.021	0.240	1274.543
1.520	-0.232	-0.030	0.541	1274.451
1.530	0.323	-0.024	0.734	1274.411
1.540	0.921	-0.012	0.757	1274.444
1.550	1.346	-0.007	0.601	1274.549
1.560	1.519	-0.012	0.304	1274.713
1.570	1.507	-0.025	-0.056	1274.907
1.580	1.471	-0.035	-0.382	1275.096
1.590	1.545	-0.035	-0.591	1275.249
1.600	1.744	-0.021	-0.638	1275.345
1.610	1.962	-0.001	-0.528	1275.378
1.620	2.069	0.011	-0.316	1275.357
1.630	1.996	0.008	-0.078	1275.304
1.640	1.803	-0.009	0.102	1275.241
1.650	1.631	-0.029	0.167	1275.186
1.660	1.592	-0.034	0.107	1275.148
1.670	1.659	-0.023	-0.043	1275.120
1.680	1.688	-0.005	-0.217	1275.087
1.690	1.544	0.011	-0.348	1275.033
1.700	1.196	0.017	-0.381	1274.946
1.710	0.743	0.014	-0.294	1274.822
1.720	0.362	0.008	-0.101	1274.670
1.730	0.212	0.004	0.149	1274.506
1.740	0.331	0.007	0.386	1274.357
1.750	0.625	0.012	0.543	1274.244
1.760	0.918	0.013	0.573	1274.184
1.770	1.056	0.005	0.467	1274.181
1.780	1.008	-0.008	0.258	1274.225
1.790	0.875	-0.020	0.008	1274.295
1.800	0.808	-0.023	-0.211	1274.366
1.810	0.877	-0.015	-0.342	1274.416
1.820	1.025	-0.001	-0.360	1274.433
1.830	1.125	0.011	-0.271	1274.415
1.840	1.074	0.016	-0.114	1274.368
1.850	0.848	0.011	0.056	1274.306
1.860	0.531	0.001	0.182	1274.246
1.870	0.281	-0.006	0.221	1274.201
1.880	0.222	-0.004	0.165	1274.177
1.890	0.333	0.008	0.039	1274.171
1.900	0.445	0.024	-0.105	1274.169
1.910	0.360	0.033	-0.207	1274.158
1.920	0.026	0.032	-0.229	1274.127
1.930	-0.442	0.021	-0.155	1274.076
1.940	-0.826	0.009	0.000	1274.011
1.950	-0.921	0.002	0.197	1273.946
1.960	-0.639	0.005	0.381	1273.900
1.970	-0.087	0.015	0.494	1273.891
1.980	0.466	0.023	0.496	1273.931
1.990	0.760	0.018	0.381	1274.019
2.000	0.721	0.001	0.180	1274.146
2.010	0.518	-0.018	-0.051	1274.290
2.020	0.453	-0.025	-0.242	1274.429
2.030	0.723	-0.014	-0.343	1274.544
2.040	1.217	0.005	-0.337	1274.624
2.050	1.627	0.017	-0.239	1274.668
2.060	1.680	0.012	-0.095	1274.687
2.070	1.348	-0.007	0.042	1274.693
2.080	0.898	-0.025	0.123	1274.702
2.090	0.699	-0.030	0.122	1274.722
2.100	0.963	-0.018	0.045	1274.754
2.110	1.485	-0.006	-0.075	1274.790
2.120	1.829	-0.001	-0.192	1274.819
2.130	1.709	0.002	-0.264	1274.828
2.140	1.174	0.007	-0.266	1274.812
2.150	0.601	0.015	-0.191	1274.770
2.160	0.342	0.021	-0.066	1274.711
2.170	0.506	0.018	0.078	1274.646
2.180	0.992	0.007	0.203	1274.588
2.190	1.529	-0.009	0.273	1274.548
2.200	1.816	-0.021	0.266	1274.533
2.210	1.734	-0.024	0.187	1274.545
2.220	1.420	-0.019	0.059	1274.575
2.230	1.192	-0.014	-0.076	1274.611
2.240	1.275	-0.013	-0.178	1274.638
2.250	1.610	-0.017	-0.220	1274.649
2.260	1.925	-0.020	-0.197	1274.637
2.270	1.974	-0.018	-0.123	1274.605
2.280	1.700	-0.013	-0.030	1274.560
2.290	1.256	-0.006	0.052	1274.509
2.300	0.860	-0.002	0.095	1274.462
2.310	0.704	-0.002	0.086	1274.421
2.320	0.812	-0.005	0.029	1274.388
2.330	1.037	-0.008	-0.056	1274.357
2.340	1.130	-0.004	-0.139	1274.321
2.350	0.890	0.005	-0.186	1274.270
2.360	0.340	0.015	-0.174	1274.201
2.370	-0.253	0.020	-0.097	1274.114
2.380	-0.548	0.016	0.027	1274.017
2.390	-0.374	0.006	0.166	1273.922
2.400	0.130	-0.003	0.283	1273.844
2.410	0.595	-0.004	0.348	1273.794
2.420	0.723	0.002	0.345	1273.776
2.430	0.481	0.010	0.279	1273.791
2.440	0.080	0.013	0.171	1273.834
2.450	-0.171	0.008	0.050	1273.894
2.460	-0.051	-0.005	-0.050	1273.960
2.470	0.427	-0.017	-0.105	1274.023
2.480	0.975	-0.019	-0.105	1274.076
2.490	1.218	-0.008	-0.063	1274.116
2.500	0.998	0.010	-0.003	1274.148
2.510	0.473	0.024	0.049	1274.177
2.520	-0.016	0.026	0.069	1274.209
2.530	-0.154	0.017	0.050	1274.246
2.540	0.162	0.003	-0.004	1274.288
2.550	0.739	-0.005	-0.075	1274.330
2.560	1.153	-0.000	-0.136	1274.364
2.570	1.041	0.011	-0.161	1274.384
2.580	0.407	0.013	-0.131	1274.387
2.590	-0.256	-0.002	-0.051	1274.376
2.600	-0.434	-0.027	0.061	1274.361
2.610	-0.007	-0.045	0.177	1274.352
2.620	0.711	-0.043	0.265	1274.361
2.630	1.262	-0.024	0.301	1274.394
2.640	1.406	-0.005	0.277	1274.456
2.650	1.225	0.004	0.200	1274.543
2.660	0.939	-0.004	0.089	1274.649
2.670	0.830	-0.023	-0.028	1274.763
2.680	1.025	-0.041	-0.123	1274.874
2.690	1.426	-0.046	-0.177	1274.974
2.700	1.799	-0.036	-0.184	1275.057
2.710	1.909	-0.020	-0.149	1275.122
2.720	1.670	-0.012	-0.090	1275.170
2.730	1.204	-0.023	-0.032	1275.209
2.740	0.801	-0.050	0.006	1275.243
2.750	0.708	-0.079	0.013	1275.278
2.760	0.902	-0.093	-0.006	1275.313
2.770	1.140	-0.088	-0.036	1275.349
2.780	1.164	-0.068	-0.059	1275.381
2.790	0.856	-0.046	-0.057	1275.407
2.800	0.312	-0.035	-0.018	1275.429
2.810	-0.189	-0.039	0.055	1275.449
2.820	-0.325	-0.050	0.147	1275.474
2.830	-0.001	-0.054	0.234	1275.514
2.840	0.526	-0.043	0.289	1275.576
2.850	0.911	-0.023	0.296	1275.666
2.860	0.932	-0.008	0.251	1275.784
2.870	0.610	-0.008	0.165	1275.927
2.880	0.192	-0.026	0.061	1276.087
2.890	-0.021	-0.052	-0.032	1276.253
2.900	0.134	-0.070	-0.090	1276.418
2.910	0.552	-0.070	-0.097	1276.574
2.920	0.898	-0.056	-0.055	1276.720
2.930	0.863	-0.040	0.019	1276.860
2.940	0.403	-0.034	0.099	1277.001
2.950	-0.195	-0.037	0.159	1277.151
2.960	-0.546	-0.039	0.186	1277.316
2.970	-0.475	-0.031	0.177	1277.501
2.980	-0.090	-0.009	0.140	1277.702
2.990	0.301	0.016	0.093	1277.918
3.000	0.379	0.032	0.055	1278.144
3.010	0.038	0.029	0.042	1278.376
3.020	-0.513	0.006	0.060	1278.612
3.030	-0.867	-0.021	0.103	1278.854
3.040	-0.722	-0.036	0.153	1279.106
3.050	-0.127	-0.029	0.191	1279.373
3.060	0.526	-0.008	0.198	1279.659
3.070	0.788	0.007	0.167	1279.965
3.080	0.535	0.004	0.105	1280.288
3.090	0.087	-0.015	0.029	1280.621
3.100	-0.110	-0.031	-0.040	1280.958
3.110	0.183	-0.028	-0.083	1281.291
3.120	0.792	-0.006	-0.092	1281.616
3.130	1.304	0.019	-0.070	1281.934
3.140	1.407	0.032	-0.027	1282.246
3.150	1.053	0.023	0.019	1282.557
3.160	0.492	-0.000	0.055	1282.870
3.170	0.104	-0.021	0.068	1283.190
3.180	0.160	-0.025	0.053	1283.517
3.190	0.631	-0.008	0.016	1283.849
3.200	1.158	0.019	-0.032	1284.184
3.210	1.311	0.036	-0.074	1284.519
3.220	0.929	0.029	-0.096	1284.850
3.230	0.303	0.009	-0.091	1285.173
3.240	-0.124	-0.005	-0.063	1285.489
3.250	-0.059	0.005	-0.022	1285.799
3.260	0.464	0.042	0.016	1286.106
3.270	1.094	0.099	0.037	1286.415
3.280	1.388	0.156	0.034	1286.731
3.290	1.069	0.187	0.010	1287.053
3.300	0.475	0.164	-0.022	1287.379
3.310	0.090	0.060	-0.048	1287.705
3.320	0.114	-0.051	-0.059	1288.027
3.330	0.461	-0.075	-0.051	1288.343
3.340	0.858	0.018	-0.026	1288.656
3.350	0.991	0.165	0.006	1288.969
3.360	0.732	0.259	0.036	1289.284
3.370	0.273	0.234	0.051	1289.605
3.380	-0.113	0.124	0.046	1289.932
3.390	-0.221	0.019	0.021	1290.263
3.400	-0.035	-0.012	-0.020	1290.595
3.410	0.225	0.046	-0.066	1290.925
3.420	0.333	0.147	-0.106	1291.249
3.430	0.190	0.213	-0.129	1291.563
3.440	-0.172	0.308	-0.129	1291.866
3.450	-0.493	0.449	-0.106	1292.155
3.460	-0.558	0.463	-0.068	1292.433
3.470	-0.387	0.288	-0.025	1292.702
3.480	-0.092	-0.006	0.011	1292.968
3.490	0.127	-0.282	0.033	1293.235
3.500	0.130	-0.392	0.037	1293.504
3.510	-0.003	-0.298	0.028	1293.778
3.520	-0.144	-0.110	0.013	1294.054
3.530	-0.139	0.026	-0.002	1294.331
3.540	0.053	0.022	-0.010	1294.608
3.550	0.278	-0.080	-0.012	1294.884
3.560	0.434	-0.153	-0.010	1295.160
3.570	0.478	-0.135	-0.011	1295.436
3.580	0.424	-0.040	-0.019	1295.713
3.590	0.376	0.084	-0.036	1295.989
3.600	0.415	0.142	-0.065	1296.262
3.610	0.525	0.109	-0.101	1296.529
3.620	0.678	0.017	-0.139	1296.788
3.630	0.775	-0.076	-0.173	1297.035
3.640	0.805	-0.129	-0.199	1297.268
3.650	0.811	-0.134	-0.213	1297.485
3.660	0.792	-0.121	-0.214	1297.683
3.670	0.834	-0.126	-0.206	1297.862
3.680	0.902	-0.156	-0.194	1298.025
3.690	0.966	-0.204	-0.180	1298.174
3.700	1.026	-0.235	-0.169	1298.306
3.710	1.038	-0.227	-0.162	1298.428
3.720	1.029	-0.183	-0.159	1298.537
3.730	1.040	-0.126	-0.159	1298.634
3.740	1.039	-0.077	-0.162	1298.720
3.750	1.059	-0.052	-0.167	1298.793
3.760	1.081	-0.040	-0.173	1298.856
3.770	1.071	-0.037	-0.181	1298.905
3.780	1.037	-0.032	-0.189	1298.941
3.790	0.967	-0.020	-0.199	1298.962
3.800	0.888	-0.017	-0.210	1298.964
3.810	0.822	-0.027	-0.219	1298.951
3.820	0.755	-0.052	-0.225	1298.919
3.830	0.684	-0.096	-0.224	1298.868
3.840	0.590	-0.147	-0.215	1298.797
3.850	0.446	-0.179	-0.192	1298.706
3.860	0.262	-0.162	-0.153	1298.598
3.870	0.050	-0.066	-0.097	1298.476
3.880	-0.176	0.082	-0.023	1298.344
3.890	-0.357	0.208	0.062	1298.210
3.900	-0.477	0.245	0.147	1298.081
3.910	-0.539	0.190	0.218	1297.966
3.920	-0.549	0.084	0.259	1297.870
3.930	-0.551	-0.006	0.262	1297.798
3.940	-0.560	-0.005	0.218	1297.754
3.950	-0.568	0.070	0.143	1297.727
3.960	-0.607	0.166	0.055	1297.711
3.970	-0.649	0.244	-0.030	1297.698
3.980	-0.686	0.271	-0.098	1297.680
3.990	-0.720	0.243	-0.136	1297.652
4.000	-0.738	0.197	-0.141	1297.609
4.010	-0.749	0.166	-0.118	1297.551
4.020	-0.784	0.178	-0.075	1297.480
4.030	-0.809	0.207	-0.030	1297.401
4.040	-0.842	0.215	0.011	1297.319
4.050	-0.868	0.187	0.043	1297.237
4.060	-0.869	0.121	0.067	1297.157
4.070	-0.878	0.041	0.088	1297.082
4.080	-0.874	-0.010	0.110	1297.016
4.090	-0.845	-0.019	0.136	1296.959
4.100	-0.806	0.004	0.164	1296.916
4.110	-0.722	0.036	0.189	1296.887
4.120	-0.622	0.049	0.204	1296.876
4.130	-0.519	0.048	0.204	1296.884
4.140	-0.389	0.243	0.187	1296.909
4.150	-0.258	0.309	0.151	1296.952
4.160	-0.123	0.092	0.100	1297.009
4.170	0.019	-0.253	0.040	1297.076
4.180	0.148	-0.451	-0.023	1297.147
4.190	0.276	-0.346	-0.079	1297.215
4.200	0.385	-0.088	-0.124	1297.275
4.210	0.478	0.108	-0.154	1297.323
4.220	0.559	0.137	-0.170	1297.359
4.230	0.622	-0.007	-0.173	1297.380
4.240	0.685	-0.206	-0.166	1297.385
4.250	0.740	-0.307	-0.154	1297.377
4.260	0.783	-0.241	-0.140	1297.355
4.270	0.816	-0.066	-0.128	1297.322
4.280	0.814	0.095	-0.119	1297.279
4.290	0.800	0.132	-0.112	1297.226
4.300	0.773	0.050	-0.105	1297.165
4.310	0.722	-0.064	-0.096	1297.097
4.320	0.697	-0.123	-0.083	1297.022
4.330	0.669	-0.071	-0.066	1296.941
4.340	0.635	0.054	-0.046	1296.856
4.350	0.623	0.166	-0.027	1296.768
4.360	0.597	0.183	-0.014	1296.680
4.370	0.594	0.114	-0.010	1296.593
4.380	0.604	0.011	-0.016	1296.506
4.390	0.593	-0.060	-0.034	1296.419
4.400	0.593	-0.031	-0.059	1296.331
4.410	0.570	0.042	-0.085	1296.238
4.420	0.533	0.098	-0.108	1296.138
4.430	0.497	0.100	-0.122	1296.028
4.440	0.444	0.047	-0.125	1295.908
4.450	0.394	-0.013	-0.117	1295.776
4.460	0.346	-0.039	-0.101	1295.634
4.470	0.280	-0.025	-0.081	1295.483
4.480	0.231	0.024	-0.062	1295.325
4.490	0.186	0.059	-0.049	1295.161
4.500	0.148	0.055	-0.040	1294.992
4.510	0.131	0.004	-0.033	1294.820
4.520	0.115	-0.092	-0.024	1294.645
4.530	0.102	-0.186	-0.005	1294.468
4.540	0.079	-0.250	0.027	1294.291
4.550	0.017	-0.284	0.075	1294.116
4.560	-0.045	-0.300	0.136	1293.949
4.570	-0.109	-0.350	0.204	1293.797
4.580	-0.176	-0.456	0.273	1293.664
4.590	-0.234	-0.580	0.334	1293.558
4.600	-0.329	-0.692	0.382	1293.486
4.610	-0.418	-0.705	0.412	1293.453
4.620	-0.480	-0.584	0.422	1293.460
4.630	-0.483	-0.381	0.409	1293.509
4.640	-0.420	-0.168	0.372	1293.598
4.650	-0.320	-0.040	0.313	1293.721
4.660	-0.224	-0.052	0.238	1293.876
4.670	-0.179	-0.166	0.155	1294.053
4.680	-0.188	-0.301	0.078	1294.247
4.690	-0.217	-0.384	0.018	1294.447
4.700	-0.239	-0.433	-0.012	1294.650
4.710	-0.239	-0.491	-0.007	1294.851
4.720	-0.251	-0.585	0.035	1295.052
4.730	-0.325	-0.711	0.110	1295.256
4.740	-0.460	-0.809	0.208	1295.472
4.750	-0.627	-0.841	0.320	1295.708
4.760	-0.777	-0.804	0.434	1295.975
4.770	-0.857	-0.714	0.537	1296.285
4.780	-0.846	-0.604	0.619	1296.648
4.790	-0.744	-0.477	0.670	1297.072
4.800	-0.590	-0.349	0.683	1297.562
4.810	-0.431	-0.246	0.653	1298.118
4.820	-0.299	-0.183	0.585	1298.739
4.830	-0.208	-0.160	0.487	1299.417
4.840	-0.151	-0.148	0.372	1300.144
4.850	-0.114	-0.115	0.258	1300.907
4.860	-0.079	-0.028	0.161	1301.697
4.870	-0.053	0.107	0.095	1302.504
4.880	-0.045	0.246	0.065	1303.321
4.890	-0.070	0.333	0.068	1304.145
4.900	-0.135	0.351	0.095	1304.976
4.910	-0.212	0.324	0.137	1305.818
4.920	-0.321	0.260	0.182	1306.677
4.930	-0.450	0.223	0.225	1307.556
4.940	-0.581	0.240	0.267	1308.458
4.950	-0.717	0.281	0.310	1309.386
4.960	-0.883	0.289	0.360	1310.346
4.970	-1.046	0.214	0.420	1311.343
4.980	-1.172	0.050	0.490	1312.384
4.990	-1.242	-0.136	0.562	1313.475
5.000	-1.192	-0.258	0.620	1314.623
5.010	-1.009	-0.246	0.647	1315.834
5.020	-0.768	-0.088	0.623	1317.109
5.030	-0.536	0.127	0.540	1318.446
5.040	-0.364	0.296	0.405	1319.837
5.050	-0.299	0.369	0.235	1321.270
5.060	-0.298	0.377	0.061	1322.729
5.070	-0.303	0.435	-0.084	1324.195
5.080	-0.287	0.649	-0.172	1325.655
5.090	-0.246	1.011	-0.186	1327.101
5.100	-0.225	1.398	-0.129	1328.532
5.110	-0.278	1.639	-0.018	1329.955
5.120	-0.381	1.611	0.116	1331.382
5.130	-0.508	1.323	0.241	1332.825
5.140	-0.619	0.893	0.328	1334.296
5.150	-0.671	0.489	0.361	1335.803
5.160	-0.698	0.247	0.336	1337.348
5.170	-0.710	0.213	0.266	1338.930
5.180	-0.705	0.291	0.178	1340.540
5.190	-0.704	0.371	0.096	1342.165
5.200	-0.662	0.413	0.034	1343.803
5.210	-0.529	0.399	-0.003	1345.446
5.220	-0.344	0.363	-0.019	1347.091
5.230	-0.126	0.363	-0.030	1348.736
5.240	0.114	0.423	-0.051	1350.379
5.250	0.304	0.545	-0.095	1352.018
5.260	0.439	0.682	-0.162	1353.648
5.270	0.528	0.760	-0.244	1355.260
5.280	0.584	0.678	-0.318	1356.849
5.290	0.656	0.427	-0.370	1358.408
5.300	0.744	0.447	-0.386	1359.931
5.310	0.822	0.729	-0.363	1361.417
5.320	0.858	1.046	-0.311	1362.867
5.330	0.871	1.101	-0.249	1364.287
5.340	0.882	0.811	-0.196	1365.684
5.350	0.895	0.335	-0.173	1367.061
5.360	0.923	-0.032	-0.195	1368.417
5.370	0.957	-0.136	-0.253	1369.750
5.380	0.939	-0.037	-0.331	1371.055
5.390	0.911	0.064	-0.408	1372.323
5.400	0.874	0.032	-0.465	1373.549
5.410	0.809	-0.141	-0.491	1374.728
5.420	0.768	-0.395	-0.481	1375.855
5.430	0.768	-0.608	-0.442	1376.932
5.440	0.743	-0.714	-0.387	1377.966
5.450	0.763	-0.732	-0.328	1378.960
5.460	0.811	-0.716	-0.277	1379.923
5.470	0.822	-0.717	-0.242	1380.857
5.480	0.835	-0.753	-0.224	1381.765
5.490	0.841	-0.800	-0.222	1382.648
5.500	0.825	-0.815	-0.228	1383.504
5.510	0.840	-0.773	-0.234	1384.333
5.520	0.811	-0.702	-0.235	1385.135
5.530	0.766	-0.632	-0.231	1385.913
5.540	0.725	-0.581	-0.227	1386.667
5.550	0.647	-0.541	-0.228	1387.399
5.560	0.559	-0.492	-0.242	1388.106
5.570	0.474	-0.432	-0.279	1388.783
5.580	0.339	-0.370	-0.337	1389.431
5.590	0.222	-0.316	-0.411	1390.046
5.600	0.106	-0.285	-0.494	1390.619
5.610	-0.021	-0.290	-0.573	1391.140
5.620	-0.131	-0.355	-0.631	1391.597
5.630	-0.267	-0.466	-0.662	1391.990
5.640	-0.392	-0.604	-0.662	1392.320
5.650	-0.491	-0.759	-0.634	1392.592
5.660	-0.603	-0.912	-0.581	1392.801
5.670	-0.711	-1.042	-0.510	1392.953
5.680	-0.810	-1.149	-0.431	1393.055
5.690	-0.897	-1.204	-0.354	1393.115
5.700	-0.939	-1.145	-0.285	1393.141
5.710	-0.922	-0.896	-0.226	1393.141
5.720	-0.856	-0.452	-0.171	1393.119
5.730	-0.756	0.108	-0.114	1393.081
5.740	-0.646	0.603	-0.051	1393.035
5.750	-0.568	0.859	0.017	1392.987
5.760	-0.506	0.819	0.081	1392.943
5.770	-0.445	0.544	0.126	1392.911
5.780	-0.366	0.193	0.136	1392.892
5.790	-0.246	-0.046	0.100	1392.888
5.800	-0.131	-0.087	0.010	1392.893
5.810	-0.043	0.039	-0.126	1392.899
5.820	0.016	0.225	-0.293	1392.891
5.830	0.029	0.380	-0.466	1392.855
5.840	0.043	0.506	-0.616	1392.774
5.850	0.084	0.687	-0.716	1392.633
5.860	0.114	1.000	-0.746	1392.423
5.870	0.173	1.418	-0.700	1392.141
5.880	0.218	1.817	-0.586	1391.794
5.890	0.230	2.054	-0.421	1391.394
5.900	0.294	2.036	-0.231	1390.957
5.910	0.380	1.804	-0.045	1390.504
5.920	0.510	1.485	0.116	1390.050
5.930	0.634	1.216	0.236	1389.610
5.940	0.692	1.060	0.307	1389.195
5.950	0.731	0.987	0.328	1388.812
5.960	0.754	0.925	0.305	1388.464
5.970	0.779	0.839	0.251	1388.148
5.980	0.842	0.747	0.175	1387.858
5.990	0.886	0.698	0.090	1387.587
6.000	0.895	0.711	0.005	1387.326
6.010	0.835	0.741	-0.071	1387.066
6.020	0.689	0.712	-0.132	1386.801
6.030	0.513	0.545	-0.167	1386.523
6.040	0.333	0.237	-0.169	1386.230
6.050	0.173	-0.108	-0.134	1385.920
6.060	0.048	-0.366	-0.068	1385.597
6.070	-0.071	-0.445	0.019	1385.267
6.080	-0.194	-0.359	0.110	1384.938
6.090	-0.334	-0.231	0.181	1384.622
6.100	-0.473	-0.182	0.223	1384.326
6.110	-0.619	-0.244	0.235	1384.052
6.120	-0.745	-0.380	0.219	1383.800
6.130	-0.840	-0.511	0.182	1383.570
6.140	-0.906	-0.567	0.133	1383.360
6.150	-0.917	-0.512	0.083	1383.165
6.160	-0.876	-0.387	0.041	1382.979
6.170	-0.806	-0.269	0.008	1382.800
6.180	-0.771	-0.211	-0.016	1382.624
6.190	-0.776	-0.230	-0.035	1382.448
6.200	-0.707	-0.265	-0.049	1382.271
6.210	-0.639	-0.281	-0.058	1382.090
6.220	-0.602	-0.319	-0.062	1381.906
6.230	-0.628	-0.468	-0.058	1381.717
6.240	-0.673	-0.702	-0.041	1381.524
6.250	-0.643	-0.852	-0.014	1381.330
6.260	-0.556	-0.863	0.016	1381.137
6.270	-0.479	-0.792	0.040	1380.947
6.280	-0.436	-0.709	0.050	1380.764
6.290	-0.448	-0.890	0.041	1380.587
6.300	-0.438	-1.528	0.014	1380.415
6.310	-0.335	-1.201	-0.034	1380.245
6.320	-0.244	-0.020	-0.097	1380.073
6.330	-0.120	1.136	-0.168	1379.892
6.340	0.045	1.550	-0.246	1379.693
6.350	0.211	0.885	-0.328	1379.469
6.360	0.410	-0.279	-0.414	1379.212
6.370	0.593	-1.100	-0.501	1378.913
6.380	0.767	-1.153	-0.580	1378.563
6.390	0.956	-0.541	-0.641	1378.155
6.400	1.150	0.123	-0.675	1377.683
6.410	1.351	0.223	-0.670	1377.144
6.420	1.550	-0.372	-0.618	1376.537
6.430	1.757	-1.344	-0.513	1375.869
6.440	1.949	-2.180	-0.358	1375.150
6.450	2.076	-2.386	-0.161	1374.394
6.460	2.103	-1.876	0.053	1373.623
6.470	2.005	-0.981	0.247	1372.858
6.480	1.824	-0.188	0.377	1372.117
6.490	1.637	0.227	0.411	1371.411
6.500	1.484	0.255	0.328	1370.746
6.510	1.385	0.127	0.129	1370.113
6.520	1.334	0.112	-0.150	1369.492
6.530	1.253	0.297	-0.456	1368.855
6.540	1.203	0.595	-0.725	1368.173
6.550	1.133	0.826	-0.903	1367.421
6.560	1.037	0.944	-0.958	1366.579
6.570	0.942	1.009	-0.888	1365.643
6.580	0.877	1.076	-0.712	1364.615
6.590	0.822	1.074	-0.480	1363.517
6.600	0.769	0.680	-0.230	1362.379
6.610	0.670	0.316	0.007	1361.216
6.620	0.499	0.004	0.219	1360.056
6.630	0.252	-0.378	0.400	1358.917
6.640	-0.042	-0.899	0.551	1357.817
6.650	-0.342	-1.497	0.672	1356.771
6.660	-0.602	-1.970	0.760	1355.793
6.670	-0.823	-2.114	0.808	1354.890
6.680	-1.005	-1.823	0.804	1354.068
6.690	-1.163	-1.214	0.738	1353.327
6.700	-1.314	-0.555	0.608	1352.661
6.710	-1.438	-0.104	0.424	1352.059
6.720	-1.524	0.048	0.209	1351.503
6.730	-1.590	0.020	-0.002	1350.972
6.740	-1.629	0.059	-0.174	1350.447
6.750	-1.658	0.385	-0.278	1349.910
6.760	-1.686	0.972	-0.296	1349.353
6.770	-1.696	1.539	-0.230	1348.773
6.780	-1.686	1.774	-0.096	1348.179
6.790	-1.642	1.524	0.081	1347.581
6.800	-1.556	0.890	0.276	1346.999
6.810	-1.441	0.142	0.470	1346.451
6.820	-1.319	-0.463	0.651	1345.954
6.830	-1.227	-0.771	0.814	1345.527
6.840	-1.185	-0.768	0.951	1345.184
6.850	-1.178	-0.582	1.050	1344.939
6.860	-1.181	-0.360	1.092	1344.802
6.870	-1.160	-0.185	1.055	1344.776
6.880	-1.074	-0.095	0.928	1344.858
6.890	-0.919	-0.093	0.714	1345.033
6.900	-0.731	-0.169	0.435	1345.286
6.910	-0.562	-0.289	0.144	1345.579
6.920	-0.430	-0.416	-0.114	1345.878
6.930	-0.319	-0.529	-0.313	1346.163
6.940	-0.214	-0.610	-0.434	1346.418
6.950	-0.100	-0.646	-0.469	1346.632
6.960	0.039	-0.626	-0.427	1346.801
6.970	0.194	-0.558	-0.330	1346.927
6.980	0.362	-0.441	-0.198	1347.017
6.990	0.526	-0.274	-0.054	1347.089
7.000	0.675	-0.064	0.096	1347.157
7.010	0.823	0.175	0.257	1347.236
7.020	0.944	0.389	0.430	1347.345
7.030	1.022	0.529	0.609	1347.499
7.040	1.048	0.561	0.776	1347.716
7.050	0.977	0.458	0.909	1348.004
7.060	0.823	0.204	0.982	1348.381
7.070	0.633	-0.173	0.971	1348.854
7.080	0.459	-0.541	0.861	1349.427
7.090	0.363	-0.734	0.666	1350.081
7.100	0.314	-0.701	0.414	1350.796
7.110	0.300	-0.516	0.140	1351.546
7.120	0.309	-0.296	-0.115	1352.303
7.130	0.277	-0.154	-0.323	1353.041
7.140	0.227	-0.103	-0.473	1353.744
7.150	0.165	-0.105	-0.563	1354.394
7.160	0.081	-0.094	-0.603	1354.987
7.170	0.019	-0.043	-0.610	1355.519
7.180	-0.066	0.034	-0.595	1355.993
7.190	-0.183	0.132	-0.564	1356.408
7.200	-0.289	0.242	-0.514	1356.766
7.210	-0.420	0.335	-0.441	1357.078
7.220	-0.535	0.394	-0.340	1357.351
7.230	-0.633	0.418	-0.206	1357.597
7.240	-0.766	0.436	-0.046	1357.829
7.250	-0.891	0.472	0.131	1358.065
7.260	-1.047	0.527	0.303	1358.322
7.270	-1.222	0.570	0.447	1358.618
7.280	-1.358	0.567	0.537	1358.968
7.290	-1.501	0.516	0.558	1359.378
7.300	-1.626	0.445	0.506	1359.845
7.310	-1.685	0.412	0.373	1360.376
7.320	-1.698	0.465	0.187	1360.948
7.330	-1.635	0.618	-0.023	1361.539
7.340	-1.525	0.855	-0.234	1362.134
7.350	-1.407	1.161	-0.419	1362.716
7.360	-1.287	1.501	-0.556	1363.265
7.370	-1.175	1.839	-0.632	1363.770
7.380	-1.048	2.124	-0.650	1364.223
7.390	-0.884	2.329	-0.621	1364.624
7.400	-0.669	2.437	-0.564	1364.974
7.410	-0.423	2.428	-0.500	1365.281
7.420	-0.179	2.317	-0.444	1365.548
7.430	0.066	2.118	-0.408	1365.782
7.440	0.299	1.823	-0.392	1365.983
7.450	0.534	1.413	-0.389	1366.152
7.460	0.772	0.903	-0.386	1366.287
7.470	0.992	0.366	-0.371	1366.387
7.480	1.193	-0.075	-0.337	1366.451
7.490	1.334	-0.300	-0.291	1366.481
7.500	1.417	-0.280	-0.245	1366.481
7.510	1.488	-0.090	-0.218	1366.454
7.520	1.548	0.151	-0.224	1366.405
7.530	1.630	0.314	-0.276	1366.332
7.540	1.718	0.399	-0.364	1366.233
7.550	1.788	0.466	-0.469	1366.101
7.560	1.889	0.572	-0.567	1365.925
7.570	2.001	0.742	-0.626	1365.696
7.580	2.100	0.978	-0.619	1365.409
7.590	2.217	1.259	-0.533	1365.067
7.600	2.295	1.563	-0.372	1364.677
7.610	2.329	1.810	-0.155	1364.257
7.620	2.362	1.821	0.079	1363.827
7.630	2.321	1.515	0.285	1363.410
7.640	2.247	0.956	0.424	1363.025
7.650	2.140	0.252	0.466	1362.684
7.660	1.985	-0.373	0.405	1362.389
7.670	1.840	-0.396	0.254	1362.135
7.680	1.682	-0.915	0.049	1361.904
7.690	1.512	-1.337	-0.166	1361.677
7.700	1.325	-1.524	-0.347	1361.431
7.710	1.119	-1.468	-0.470	1361.150
7.720	0.915	-1.289	-0.521	1360.822
7.730	0.688	-1.164	-0.506	1360.441
7.740	0.448	-1.249	-0.441	1360.009
7.750	0.213	-1.537	-0.350	1359.533
7.760	-0.028	-1.871	-0.249	1359.022
7.770	-0.279	-2.100	-0.148	1358.486
7.780	-0.581	-2.165	-0.045	1357.937
7.790	-0.946	-2.233	0.071	1357.386
7.800	-1.289	-2.604	0.219	1356.849
7.810	-1.551	-3.323	0.411	1356.339
7.820	-1.698	-4.076	0.647	1355.880
7.830	-1.728	-4.345	0.897	1355.502
7.840	-1.759	-3.838	1.095	1355.233
7.850	-1.804	-2.839	1.180	1355.086
7.860	-1.885	-1.770	1.113	1355.063
7.870	-1.959	-0.967	0.894	1355.148
7.880	-1.980	-0.612	0.534	1355.328
7.890	-1.967	-0.673	0.088	1355.568
7.900	-1.940	-0.941	-0.368	1355.828
7.910	-1.952	-1.069	-0.737	1356.058
7.920	-2.048	-0.938	-0.959	1356.222
7.930	-2.204	-0.668	-1.023	1356.306
7.940	-2.397	-0.469	-0.930	1356.302
7.950	-2.593	-0.505	-0.716	1356.218
7.960	-2.748	-0.768	-0.432	1356.076
7.970	-2.830	-1.119	-0.124	1355.902
7.980	-2.795	-1.361	0.170	1355.726
7.990	-2.610	-1.364	0.430	1355.577
8.000	-2.238	-1.161	0.650	1355.480
8.010	-1.701	-0.884	0.818	1355.462
8.020	-1.154	-0.629	0.932	1355.528
8.030	-0.622	-0.593	0.978	1355.692
8.040	-0.157	-0.675	0.953	1355.948
8.050	0.144	-0.788	0.847	1356.306
8.060	0.372	-0.723	0.679	1356.738
8.070	0.544	-0.462	0.459	1357.230
8.080	0.686	-0.094	0.206	1357.765
8.090	0.849	0.224	-0.058	1358.319
8.100	1.027	0.381	-0.305	1358.868
8.110	1.196	0.489	-0.511	1359.386
8.120	1.328	0.712	-0.662	1359.855
8.130	1.343	1.158	-0.751	1360.251
8.140	1.298	1.737	-0.793	1360.574
8.150	1.242	2.264	-0.804	1360.831
8.160	1.159	2.671	-0.791	1361.022
8.170	1.091	2.947	-0.754	1361.146
8.180	0.998	3.169	-0.697	1361.209
8.190	0.850	3.451	-0.617	1361.217
8.200	0.702	3.846	-0.513	1361.181
8.210	0.558	4.274	-0.391	1361.113
8.220	0.493	4.574	-0.261	1361.029
8.230	0.554	4.574	-0.144	1360.941
8.240	0.615	4.292	-0.066	1360.863
8.250	0.674	3.766	-0.055	1360.801
8.260	0.696	3.135	-0.110	1360.752
8.270	0.690	2.480	-0.219	1360.706
8.280	0.719	1.881	-0.352	1360.648
8.290	0.741	1.367	-0.473	1360.565
8.300	0.745	0.973	-0.548	1360.442
8.310	0.714	0.676	-0.553	1360.271
8.320	0.611	0.411	-0.479	1360.049
8.330	0.429	0.154	-0.340	1359.783
8.340	0.176	-0.050	-0.171	1359.485
8.350	-0.137	-0.145	-0.013	1359.170
8.360	-0.462	-0.073	0.092	1358.851
8.370	-0.766	0.181	0.115	1358.539
8.380	-1.040	0.544	0.046	1358.239
8.390	-1.272	0.872	-0.096	1357.945
8.400	-1.459	1.054	-0.266	1357.643
8.410	-1.598	1.060	-0.416	1357.317
8.420	-1.659	0.922	-0.510	1356.955
8.430	-1.642	0.738	-0.525	1356.546
8.440	-1.539	0.567	-0.464	1356.087
8.450	-1.321	0.370	-0.353	1355.582
8.460	-1.027	0.070	-0.238	1355.042
8.470	-0.711	-0.389	-0.162	1354.476
8.480	-0.402	-0.955	-0.130	1353.894
8.490	-0.113	-1.571	-0.126	1353.302
8.500	0.164	-2.185	-0.130	1352.699
8.510	0.403	-2.723	-0.114	1352.086
8.520	0.585	-3.101	-0.057	1351.467
8.530	0.695	-3.252	0.047	1350.848
8.540	0.714	-3.200	0.179	1350.240
8.550	0.675	-3.056	0.298	1349.658
8.560	0.646	-2.952	0.358	1349.112
8.570	0.673	-2.947	0.322	1348.609
8.580	0.766	-2.988	0.178	1348.146
8.590	0.883	-2.987	-0.053	1347.708
8.600	0.996	-2.943	-0.323	1347.276
8.610	1.086	-2.926	-0.565	1346.822
8.620	1.137	-2.970	-0.718	1346.324
8.630	1.173	-3.026	-0.739	1345.766
8.640	1.214	-2.985	-0.626	1345.147
8.650	1.276	-2.779	-0.413	1344.479
8.660	1.372	-2.396	-0.153	1343.780
8.670	1.486	-1.866	0.099	1343.074
8.680	1.599	-1.274	0.286	1342.384
8.690	1.670	-0.731	0.374	1341.728
8.700	1.683	-0.333	0.361	1341.116
8.710	1.664	-0.095	0.276	1340.544
8.720	1.618	0.068	0.156	1340.004
8.730	1.567	0.259	0.044	1339.485
8.740	1.499	0.516	-0.031	1338.976
8.750	1.381	0.786	-0.054	1338.470
8.760	1.215	0.980	-0.033	1337.964
8.770	1.011	1.031	0.010	1337.460
8.780	0.786	0.973	0.046	1336.960
8.790	0.582	0.869	0.048	1336.468
8.800	0.408	0.857	0.009	1335.983
8.810	0.255	1.038	-0.060	1335.501
8.820	0.094	1.354	-0.137	1335.016
8.830	-0.113	1.656	-0.193	1334.522
8.840	-0.336	1.742	-0.195	1334.016
8.850	-0.539	1.486	-0.122	1333.497
8.860	-0.701	0.985	0.035	1332.972
8.870	-0.794	0.541	0.263	1332.454
8.880	-0.878	0.450	0.521	1331.966
8.890	-0.970	0.763	0.756	1331.533
8.900	-1.041	1.303	0.923	1331.177
8.910	-1.091	1.788	0.985	1330.915
8.920	-1.082	2.022	0.928	1330.757
8.930	-1.023	1.977	0.765	1330.697
8.940	-0.951	1.788	0.528	1330.721
8.950	-0.877	1.673	0.265	1330.806
8.960	-0.835	1.758	0.026	1330.923
8.970	-0.826	1.979	-0.152	1331.050
8.980	-0.819	2.160	-0.255	1331.170
8.990	-0.800	2.146	-0.288	1331.273
9.000	-0.744	1.904	-0.269	1331.354
9.010	-0.644	1.522	-0.226	1331.414
9.020	-0.529	1.160	-0.184	1331.456
9.030	-0.412	0.939	-0.156	1331.481
9.040	-0.312	0.851	-0.136	1331.493
9.050	-0.236	0.789	-0.107	1331.492
9.060	-0.146	0.621	-0.047	1331.482
9.070	-0.021	0.291	0.062	1331.469
9.080	0.129	-0.156	0.218	1331.463
9.090	0.277	-0.553	0.404	1331.486
9.100	0.376	-0.780	0.581	1331.549
9.110	0.381	-0.781	0.718	1331.673
9.120	0.360	-0.746	0.783	1331.875
9.130	0.365	-0.802	0.774	1332.145
9.140	0.440	-0.987	0.682	1332.491
9.150	0.589	-1.259	0.519	1332.904
9.160	0.750	-1.455	0.309	1333.369
9.170	0.856	-1.328	0.087	1333.868
9.180	0.902	-1.045	-0.112	1334.376
9.190	0.898	-0.845	-0.265	1334.874
9.200	0.899	-0.865	-0.362	1335.348
9.210	0.918	-0.980	-0.403	1335.787
9.220	0.843	-0.892	-0.397	1336.187
9.230	0.699	-0.500	-0.356	1336.550
9.240	0.536	0.010	-0.295	1336.877
9.250	0.397	0.351	-0.221	1337.175
9.260	0.284	0.355	-0.142	1337.450
9.270	0.127	0.116	-0.056	1337.711
9.280	-0.134	-0.091	0.041	1337.966
9.290	-0.474	-0.030	0.149	1338.227
9.300	-0.848	0.313	0.268	1338.503
9.310	-1.147	0.744	0.388	1338.807
9.320	-1.228	0.903	0.486	1339.156
9.330	-1.166	0.707	0.536	1339.556
9.340	-1.007	0.333	0.517	1340.012
9.350	-0.831	0.040	0.419	1340.520
9.360	-0.756	0.029	0.253	1341.067
9.370	-0.768	0.296	0.038	1341.638
9.380	-0.832	0.764	-0.192	1342.213
9.390	-0.921	1.191	-0.392	1342.768
9.400	-0.974	1.405	-0.537	1343.289
9.410	-0.998	1.409	-0.605	1343.762
9.420	-1.022	1.304	-0.596	1344.180
9.430	-1.099	1.155	-0.521	1344.535
9.440	-1.252	1.061	-0.422	1344.846
9.450	-1.457	0.904	-0.325	1345.123
9.460	-1.666	0.671	-0.243	1345.375
9.470	-1.867	0.388	-0.183	1345.608
9.480	-2.021	0.104	-0.142	1345.829
9.490	-2.082	0.006	-0.109	1346.041
9.500	-2.076	0.107	-0.078	1346.247
9.510	-1.933	0.214	-0.053	1346.451
9.520	-1.691	0.219	-0.042	1346.653
9.530	-1.382	0.009	-0.062	1346.854
9.540	-1.024	-0.421	-0.129	1347.049
9.550	-0.704	-0.928	-0.244	1347.233
9.560	-0.415	-1.435	-0.402	1347.395
9.570	-0.120	-1.851	-0.572	1347.518
9.580	0.199	-2.151	-0.714	1347.589
9.590	0.559	-2.389	-0.784	1347.596
9.600	0.908	-2.605	-0.748	1347.531
9.610	1.174	-2.784	-0.602	1347.401
9.620	1.319	-2.864	-0.376	1347.222
9.630	1.357	-2.830	-0.122	1347.016
9.640	1.350	-2.724	0.099	1346.808
9.650	1.354	-2.613	0.232	1346.620
9.660	1.380	-2.540	0.245	1346.466
9.670	1.400	-2.499	0.140	1346.349
9.680	1.355	-2.448	-0.048	1346.260
9.690	1.217	-2.359	-0.267	1346.181
9.700	1.026	-2.257	-0.460	1346.091
9.710	0.878	-2.199	-0.588	1345.970
9.720	0.868	-2.245	-0.635	1345.804
9.730	1.027	-2.411	-0.610	1345.586
9.740	1.260	-2.648	-0.555	1345.319
9.750	1.480	-2.851	-0.504	1345.016
9.760	1.642	-2.900	-0.475	1344.680
9.770	1.722	-2.678	-0.464	1344.310
9.780	1.759	-2.146	-0.451	1343.908
9.790	1.771	-1.388	-0.399	1343.472
9.800	1.735	-0.624	-0.271	1343.006
9.810	1.620	-0.104	-0.054	1342.519
9.820	1.402	0.027	0.228	1342.032
9.830	1.104	-0.125	0.522	1341.571
9.840	0.784	-0.312	0.760	1341.164
9.850	0.480	-0.246	0.882	1340.831
9.860	0.232	0.265	0.852	1340.585
9.870	0.056	1.098	0.681	1340.423
9.880	-0.137	1.849	0.429	1340.327
9.890	-0.385	2.278	0.169	1340.277
9.900	-0.689	2.343	-0.026	1340.249
9.910	-1.037	2.248	-0.101	1340.227
9.920	-1.301	2.332	-0.033	1340.203
9.930	-1.378	2.713	0.150	1340.185
9.940	-1.360	3.227	0.388	1340.194
9.950	-1.227	3.643	0.598	1340.263
9.960	-1.074	3.862	0.722	1340.406
9.970	-1.085	3.837	0.739	1340.636
9.980	-1.088	3.704	0.650	1340.966
9.990	-1.091	3.660	0.504	1341.376
10.000	-1.159	3.594	0.353	1341.854
10.010	-1.088	3.654	0.241	1342.388
10.020	-0.966	3.827	0.188	1342.970
10.030	-0.914	3.778	0.199	1343.594
10.040	-0.818	3.622	0.241	1344.261
10.050	-0.777	3.451	0.268	1344.972
10.060	-0.752	3.202	0.246	1345.730
10.070	-0.619	3.057	0.151	1346.528
10.080	-0.441	3.065	-0.011	1347.356
10.090	-0.226	3.075	-0.206	1348.197
10.100	-0.015	3.082	-0.386	1349.026
10.110	0.102	2.994	-0.517	1349.830
10.120	0.207	2.734	-0.562	1350.589
10.130	0.329	2.465	-0.532	1351.304
10.140	0.440	2.046	-0.433	1351.972
10.150	0.600	1.581	-0.295	1352.601
10.160	0.756	1.012	-0.155	1353.203
10.170	0.854	-0.154	-0.022	1353.790
10.180	0.877	-1.311	0.094	1354.373
10.190	0.789	-2.130	0.191	1354.966
10.200	0.896	-3.005	0.282	1355.579
10.210	1.208	-3.528	0.367	1356.223
10.220	1.499	-3.591	0.435	1356.911
10.230	1.698	-3.271	0.471	1357.648
10.240	1.605	-2.601	0.444	1358.438
10.250	1.331	-2.044	0.335	1359.278
10.260	1.140	-2.072	0.152	1360.157
10.270	1.145	-2.784	-0.083	1361.058
10.280	1.261	-3.831	-0.325	1361.960
10.290	1.241	-4.703	-0.530	1362.846
10.300	0.945	-5.116	-0.660	1363.700
10.310	0.444	-5.173	-0.701	1364.514
10.320	-0.142	-5.161	-0.661	1365.285
10.330	-0.619	-5.174	-0.561	1366.018
10.340	-0.898	-5.264	-0.437	1366.724
10.350	-1.152	-4.849	-0.305	1367.417
10.360	-1.502	-3.511	-0.157	1368.109
10.370	-1.948	-1.622	0.015	1368.807
10.380	-2.460	0.101	0.231	1369.522
10.390	-2.381	-0.316	0.438	1370.270
10.400	-1.676	-2.655	0.542	1371.069
10.410	-0.738	-5.041	0.477	1371.936
10.420	-0.122	-5.578	0.239	1372.867
10.430	-0.228	-3.796	-0.120	1373.839
10.440	-0.901	-0.964	-0.505	1374.810
10.450	-1.647	0.938	-0.815	1375.738
10.460	-2.034	0.707	-0.971	1376.591
10.470	-1.967	-1.093	-0.939	1377.357
10.480	-1.758	-2.841	-0.741	1378.039
10.490	-1.983	-3.190	-0.437	1378.656
10.500	-2.713	-1.837	-0.110	1379.234
10.510	-3.464	0.737	0.144	1379.810
10.520	-4.312	2.864	0.273	1380.414
10.530	-4.339	3.358	0.288	1381.066
10.540	-3.844	2.742	0.221	1381.769
10.550	-3.420	1.637	0.140	1382.516
10.560	-2.590	1.240	0.089	1383.292
10.570	-2.107	2.342	0.071	1384.091
10.580	-1.792	3.887	0.081	1384.914
10.590	-1.114	4.943	0.072	1385.770
10.600	-0.532	5.158	0.011	1386.662
10.610	0.156	4.393	-0.119	1387.584
10.620	0.815	3.438	-0.325	1388.519
10.630	1.149	3.169	-0.587	1389.444
10.640	1.270	3.676	-0.863	1390.330
10.650	1.276	4.537	-1.106	1391.155
10.660	1.349	5.130	-1.270	1391.902
10.670	1.624	4.997	-1.327	1392.559
10.680	2.050	4.241	-1.281	1393.119
10.690	2.524	3.359	-1.164	1393.583
10.700	2.923	2.840	-1.027	1393.958
10.710	3.193	2.849	-0.922	1394.254
10.720	3.403	3.132	-0.882	1394.484
10.730	3.630	3.278	-0.913	1394.651
10.740	3.939	3.005	-0.996	1394.755
10.750	4.318	2.369	-1.102	1394.786
10.760	4.668	1.674	-1.199	1394.734
10.770	4.907	1.138	-1.270	1394.588
10.780	4.995	0.882	-1.306	1394.339
10.790	4.963	0.818	-1.312	1393.985
10.800	4.893	0.740	-1.296	1393.523
10.810	4.828	0.472	-1.265	1392.949
10.820	4.743	-0.077	-1.215	1392.269
10.830	4.526	-0.898	-1.121	1391.480
10.840	4.053	-1.905	-0.955	1390.605
10.850	3.427	-3.008	-0.673	1389.648
10.860	2.795	-3.909	-0.290	1388.645
10.870	2.211	-4.577	0.155	1387.629
10.880	1.823	-4.875	0.581	1386.641
10.890	1.606	-4.737	0.880	1385.724
10.900	1.460	-4.276	0.952	1384.906
10.910	1.224	-3.746	0.741	1384.192
10.920	0.787	-3.388	0.274	1383.560
10.930	0.184	-3.231	-0.350	1382.964
10.940	-0.446	-3.200	-0.985	1382.346
10.950	-0.946	-3.128	-1.472	1381.645
10.960	-1.272	-2.856	-1.688	1380.813
10.970	-1.526	-2.359	-1.592	1379.829
10.980	-1.878	-1.754	-1.228	1378.703
10.990	-2.438	-1.285	-0.712	1377.469
11.000	-3.181	-1.145	-0.179	1376.181
11.010	-4.011	-1.364	0.255	1374.891
11.020	-4.860	-1.826	0.533	1373.648
11.030	-5.732	-1.860	0.656	1372.495
11.040	-6.539	-0.955	0.716	1371.440
11.050	-7.049	-1.448	0.781	1370.503
11.060	-7.154	-2.610	0.878	1369.671
11.070	-6.669	-3.497	1.003	1368.965
11.080	-5.741	-3.217	1.112	1368.393
11.090	-4.641	-1.771	1.125	1367.959
11.100	-3.650	0.040	0.957	1367.658
11.110	-3.004	1.144	0.571	1367.468
11.120	-2.729	1.087	0.008	1367.349
11.130	-2.698	0.234	-0.631	1367.245
11.140	-2.656	-0.387	-1.199	1367.091
11.150	-2.411	0.180	-1.558	1366.826
11.160	-1.934	2.068	-1.634	1366.419
11.170	-1.317	4.580	-1.410	1365.867
11.180	-0.715	6.595	-0.951	1365.203
11.190	-0.188	7.394	-0.365	1364.481
11.200	0.293	6.934	0.221	1363.762
11.210	0.797	5.870	0.681	1363.103
11.220	1.356	4.968	0.933	1362.547
11.230	1.924	4.574	0.958	1362.112
11.240	2.427	4.519	0.786	1361.802
11.250	2.776	4.285	0.490	1361.601
11.260	2.907	3.485	0.167	1361.483
11.270	2.944	2.253	-0.108	1361.412
11.280	3.062	1.166	-0.304	1361.356
11.290	3.371	0.859	-0.428	1361.287
11.300	3.860	1.265	-0.529	1361.194
11.310	4.338	1.869	-0.643	1361.071
11.320	4.636	2.144	-0.786	1360.910
11.330	4.707	1.814	-0.942	1360.694
11.340	4.624	1.181	-1.070	1360.410
11.350	4.520	0.651	-1.124	1360.044
11.360	4.491	0.538	-1.053	1359.583
11.370	4.485	0.742	-0.850	1359.043
11.380	4.439	0.942	-0.514	1358.440
11.390	4.193	0.763	-0.076	1357.802
11.400	3.688	0.125	0.391	1357.171
11.410	3.017	-0.778	0.806	1356.588
11.420	2.270	-1.631	1.092	1356.090
11.430	1.557	-2.202	1.202	1355.703
11.440	0.950	-2.455	1.124	1355.438
11.450	0.410	-2.533	0.889	1355.289
11.460	-0.117	-2.657	0.568	1355.233
11.470	-0.665	-2.957	0.243	1355.244
11.480	-1.278	-3.391	-0.012	1355.292
11.490	-1.903	-3.829	-0.145	1355.358
11.500	-2.490	-4.166	-0.145	1355.435
11.510	-3.014	-4.356	-0.038	1355.526
11.520	-3.435	-4.479	0.121	1355.648
11.530	-3.741	-4.664	0.259	1355.819
11.540	-3.938	-4.957	0.328	1356.058
11.550	-4.044	-5.335	0.300	1356.375
11.560	-4.078	-5.691	0.181	1356.771
11.570	-4.100	-5.851	0.010	1357.238
11.580	-4.135	-5.720	-0.159	1357.761
11.590	-4.202	-5.317	-0.280	1358.322
11.600	-4.321	-4.727	-0.328	1358.909
11.610	-4.460	-4.088	-0.298	1359.513
11.620	-4.566	-3.447	-0.219	1360.133
11.630	-4.602	-2.759	-0.126	1360.775
11.640	-4.534	-1.989	-0.052	1361.441
11.650	-4.399	-1.048	-0.015	1362.136
11.660	-4.249	0.129	-0.010	1362.858
11.670	-4.066	1.305	-0.013	1363.603
11.680	-3.812	2.128	0.004	1364.370
11.690	-3.452	2.429	0.053	1365.157
11.700	-2.946	2.298	0.126	1365.967
11.710	-2.307	2.022	0.197	1366.805
11.720	-1.579	1.900	0.227	1367.674
11.730	-0.845	2.085	0.178	1368.575
11.740	-0.209	2.525	0.026	1369.501
11.750	0.289	3.000	-0.226	1370.440
11.760	0.678	3.312	-0.541	1371.370
11.770	1.048	3.430	-0.859	1372.263
11.780	1.477	3.536	-1.119	1373.092
11.790	1.985	3.856	-1.276	1373.832
11.800	2.537	4.432	-1.315	1374.476
11.810	3.107	4.977	-1.245	1375.025
11.820	3.638	5.334	-1.086	1375.495
11.830	4.064	5.522	-0.881	1375.906
11.840	4.398	5.533	-0.681	1376.282
11.850	4.692	5.379	-0.523	1376.646
11.860	4.893	5.184	-0.439	1377.014
11.870	4.909	5.110	-0.441	1377.395
11.880	4.813	5.045	-0.514	1377.787
11.890	4.628	4.832	-0.641	1378.178
11.900	4.316	4.635	-0.795	1378.551
11.910	3.992	4.366	-0.954	1378.889
11.920	3.686	4.017	-1.107	1379.167
11.930	3.371	3.801	-1.243	1379.365
11.940	3.115	3.620	-1.357	1379.470
11.950	2.833	3.567	-1.443	1379.460
11.960	2.519	3.707	-1.491	1379.322
11.970	2.248	4.045	-1.482	1379.044
11.980	1.990	4.382	-1.407	1378.633
11.990	1.716	4.616	-1.263	1378.098
12.000	1.428	4.411	-1.058	1377.448
12.010	1.121	3.471	-0.807	1376.691
12.020	0.852	1.764	-0.529	1375.849
12.030	0.740	-0.987	-0.232	1374.951
12.040	0.658	-4.062	0.083	1374.033
12.050	0.615	-6.970	0.428	1373.142
12.060	0.735	-9.880	0.808	1372.328
12.070	0.697	-11.971	1.203	1371.645
12.080	0.176	-12.615	1.564	1371.149
12.090	-1.460	-10.034	1.782	1370.878
12.100	-4.049	-4.559	1.716	1370.855
12.110	-6.111	0.549	1.278	1371.050
12.120	-6.218	1.937	0.489	1371.392
12.130	-4.441	-1.050	-0.513	1371.795
12.140	-2.242	-6.082	-1.501	1372.176
12.150	-1.304	-9.816	-2.216	1372.477
12.160	-2.167	-10.648	-2.477	1372.661
12.170	-4.214	-9.083	-2.218	1372.717
12.180	-5.924	-7.312	-1.534	1372.663
12.190	-6.026	-7.314	-0.687	1372.560
12.200	-4.520	-9.093	0.042	1372.485
12.210	-2.379	-11.145	0.432	1372.514
12.220	-0.820	-11.453	0.395	1372.688
12.230	-0.559	-9.344	-0.016	1373.006
12.240	-1.183	-6.436	-0.601	1373.392
12.250	-1.786	-4.400	-1.170	1373.765
12.260	-1.722	-4.294	-1.560	1374.051
12.270	-0.915	-5.462	-1.677	1374.212
12.280	0.155	-6.622	-1.508	1374.245
12.290	0.956	-6.547	-1.111	1374.169
12.300	1.320	-4.657	-0.585	1374.015
12.310	1.402	-2.003	-0.050	1373.825
12.320	1.465	0.558	0.394	1373.641
12.330	1.796	2.370	0.709	1373.500
12.340	2.399	3.425	0.899	1373.427
12.350	3.033	4.100	1.000	1373.455
12.360	3.559	4.835	1.078	1373.593
12.370	3.838	5.547	1.148	1373.849
12.380	3.817	6.067	1.200	1374.252
12.390	3.728	6.221	1.212	1374.799
12.400	3.629	5.939	1.143	1375.507
12.410	3.558	5.376	0.964	1376.366
12.420	3.481	4.659	0.644	1377.374
12.430	3.280	4.023	0.219	1378.479
12.440	2.998	3.716	-0.270	1379.637
12.450	2.668	3.702	-0.764	1380.803
12.460	2.347	3.811	-1.180	1381.923
12.470	2.068	3.940	-1.476	1382.967
12.480	1.740	4.046	-1.616	1383.904
12.490	1.375	4.359	-1.628	1384.736
12.500	0.947	4.773	-1.542	1385.462
12.510	0.484	5.168	-1.400	1386.102
12.520	0.003	6.004	-1.254	1386.673
12.530	-0.538	7.225	-1.155	1387.199
12.540	-1.142	8.065	-1.117	1387.708
12.550	-1.711	8.315	-1.114	1388.219
12.560	-2.331	8.124	-1.111	1388.733
12.570	-3.101	7.790	-1.073	1389.251
12.580	-3.885	7.727	-0.985	1389.777
12.590	-4.615	7.997	-0.846	1390.322
12.600	-5.103	8.407	-0.670	1390.904
12.610	-5.242	8.557	-0.489	1391.544
12.620	-5.184	8.049	-0.352	1392.255
12.630	-5.067	6.781	-0.314	1393.043
12.640	-5.012	5.049	-0.413	1393.894
12.650	-5.062	3.389	-0.677	1394.782
12.660	-5.062	2.205	-1.060	1395.662
12.670	-4.954	1.627	-1.510	1396.491
12.680	-4.725	1.478	-1.948	1397.219
12.690	-4.449	1.379	-2.293	1397.800
12.700	-4.291	1.001	-2.485	1398.193
12.710	-4.301	0.293	-2.509	1398.373
12.720	-4.386	-0.489	-2.395	1398.336
12.730	-4.265	-1.144	-2.198	1398.089
12.740	-3.426	-1.928	-1.967	1397.649
12.750	-2.264	-4.003	-1.708	1397.036
12.760	-1.286	-8.189	-1.374	1396.275
12.770	-0.450	-12.979	-0.902	1395.415
12.780	0.188	-16.227	-0.256	1394.523
12.790	0.975	-16.192	0.539	1393.682
12.800	1.819	-13.041	1.365	1392.981
12.810	2.570	-8.872	2.037	1392.491
12.820	3.128	-5.511	2.341	1392.259
12.830	3.279	-3.953	2.101	1392.298
12.840	3.220	-3.526	1.282	1392.573
12.850	3.197	-3.240	0.011	1393.002
12.860	3.465	-2.631	-1.461	1393.466
12.870	4.062	-1.867	-2.818	1393.823
12.880	4.791	-1.557	-3.769	1393.939
12.890	5.460	-2.209	-4.150	1393.722
12.900	5.956	-3.862	-3.961	1393.147
12.910	6.354	-6.085	-3.336	1392.243
12.920	6.798	-8.148	-2.502	1391.088
12.930	7.279	-9.380	-1.672	1389.771
12.940	7.718	-9.340	-1.009	1388.377
12.950	7.925	-7.961	-0.579	1386.970
12.960	7.740	-5.668	-0.336	1385.582
12.970	7.294	-3.245	-0.164	1384.223
12.980	6.593	-1.312	0.039	1382.898
12.990	5.766	-0.112	0.329	1381.615
13.000	4.945	0.545	0.683	1380.395
13.010	4.085	1.127	1.002	1379.266
13.020	3.205	1.855	1.164	1378.253
13.030	2.395	2.560	1.076	1377.367
13.040	1.653	2.989	0.725	1376.598
13.050	0.983	3.129	0.189	1375.912
13.060	0.308	3.151	-0.393	1375.261
13.070	-0.435	3.231	-0.871	1374.593
13.080	-1.241	3.505	-1.105	1373.863
13.090	-2.041	3.912	-1.045	1373.054
13.100	-2.763	4.334	-0.740	1372.182
13.110	-3.384	4.729	-0.303	1371.285
13.120	-3.989	5.184	0.127	1370.415
13.130	-4.556	5.863	0.420	1369.624
13.140	-4.881	6.792	0.494	1368.954
13.150	-5.003	7.876	0.346	1368.431
13.160	-5.018	8.811	0.049	1368.055
13.170	-5.119	9.331	-0.286	1367.813
13.180	-5.463	9.336	-0.550	1367.679
13.190	-6.027	8.876	-0.674	1367.634
13.200	-6.706	8.144	-0.651	1367.666
13.210	-7.230	7.323	-0.531	1367.772
13.220	-7.456	6.460	-0.401	1367.958
13.230	-7.408	5.525	-0.340	1368.225
13.240	-7.173	4.500	-0.393	1368.565
13.250	-6.875	3.470	-0.565	1368.960
13.260	-6.590	2.604	-0.816	1369.377
13.270	-6.227	2.024	-1.069	1369.779
13.280	-5.717	1.731	-1.240	1370.129
13.290	-4.985	1.576	-1.273	1370.400
13.300	-4.044	1.332	-1.156	1370.579
13.310	-3.033	0.843	-0.929	1370.666
13.320	-2.089	0.120	-0.664	1370.674
13.330	-1.278	-0.722	-0.433	1370.621
13.340	-0.511	-1.589	-0.282	1370.527
13.350	0.333	-2.451	-0.211	1370.404
13.360	1.296	-3.276	-0.185	1370.262
13.370	2.313	-3.991	-0.158	1370.108
13.380	3.245	-4.507	-0.090	1369.952
13.390	3.981	-4.810	0.032	1369.811
13.400	4.522	-5.001	0.176	1369.707
13.410	4.969	-5.251	0.276	1369.664
13.420	5.403	-5.605	0.267	1369.700
13.430	5.863	-5.998	0.099	1369.824
13.440	6.294	-6.300	-0.239	1370.031
13.450	6.590	-6.426	-0.702	1370.297
13.460	6.717	-6.458	-1.210	1370.585
13.470	6.698	-6.558	-1.670	1370.853
13.480	6.630	-6.879	-1.995	1371.056
13.490	6.630	-7.409	-2.134	1371.166
13.500	6.714	-7.942	-2.084	1371.173
13.510	6.787	-8.207	-1.873	1371.084
13.520	6.723	-7.997	-1.559	1370.915
13.530	6.394	-7.326	-1.211	1370.691
13.540	5.760	-6.397	-0.892	1370.431
13.550	4.939	-5.467	-0.645	1370.152
13.560	4.131	-4.674	-0.483	1369.862
13.570	3.429	-3.964	-0.387	1369.561
13.580	2.828	-3.274	-0.330	1369.249
13.590	2.235	-2.521	-0.274	1368.921
13.600	1.528	-1.721	-0.194	1368.577
13.610	0.699	-0.954	-0.088	1368.218
13.620	-0.198	-0.296	0.035	1367.853
13.630	-1.072	0.210	0.161	1367.492
13.640	-1.863	0.571	0.269	1367.148
13.650	-2.600	0.885	0.349	1366.836
13.660	-3.383	1.316	0.405	1366.573
13.670	-4.288	2.008	0.456	1366.371
13.680	-5.372	3.008	0.527	1366.250
13.690	-6.447	4.214	0.630	1366.235
13.700	-7.266	5.407	0.761	1366.359
13.710	-7.739	6.349	0.893	1366.655
13.720	-7.754	6.872	0.984	1367.157
13.730	-7.397	6.941	0.981	1367.887
13.740	-6.974	6.728	0.836	1368.849
13.750	-6.618	6.468	0.527	1370.028
13.760	-6.389	6.328	0.071	1371.392
13.770	-6.272	6.313	-0.476	1372.893
13.780	-6.105	6.321	-1.030	1374.479
13.790	-5.881	6.282	-1.511	1376.096
13.800	-5.613	6.185	-1.848	1377.693
13.810	-5.307	6.084	-2.014	1379.229
13.820	-5.036	6.060	-2.023	1380.683
13.830	-4.770	6.147	-1.921	1382.047
13.840	-4.431	6.311	-1.767	1383.323
13.850	-3.982	6.446	-1.619	1384.520
13.860	-3.372	6.443	-1.509	1385.645
13.870	-2.600	6.286	-1.443	1386.700
13.880	-1.770	6.029	-1.409	1387.681
13.890	-0.928	5.749	-1.382	1388.581
13.900	-0.115	5.508	-1.339	1389.393
13.910	0.690	5.310	-1.274	1390.116
13.920	1.536	5.089	-1.195	1390.749
13.930	2.391	4.780	-1.130	1391.296
13.940	3.197	4.381	-1.111	1391.761
13.950	3.891	3.954	-1.161	1392.143
13.960	4.429	3.579	-1.292	1392.438
13.970	4.869	3.279	-1.493	1392.633
13.980	5.449	2.911	-1.732	1392.711
13.990	6.669	2.104	-1.958	1392.650
14.000	8.615	0.054	-2.104	1392.439
14.010	9.681	-4.002	-2.085	1392.080
14.020	9.526	-9.008	-1.827	1391.596
14.030	8.858	-12.775	-1.330	1391.036
14.040	8.429	-13.910	-0.689	1390.470
14.050	8.455	-12.587	-0.047	1389.968
14.060	8.638	-10.082	0.424	1389.591
14.070	8.435	-7.858	0.581	1389.378
14.080	7.436	-6.687	0.341	1389.334
14.090	5.633	-6.289	-0.279	1389.423
14.100	3.582	-5.626	-1.148	1389.571
14.110	2.023	-4.188	-2.055	1389.673
14.120	1.347	-2.562	-2.776	1389.618
14.130	1.368	-1.708	-3.155	1389.324
14.140	1.498	-2.242	-3.131	1388.745
14.150	1.114	-3.853	-2.746	1387.885
14.160	0.100	-5.487	-2.137	1386.790
14.170	-1.144	-6.241	-1.478	1385.531
14.180	-2.057	-6.067	-0.932	1384.170
14.190	-2.202	-5.816	-0.596	1382.759
14.200	-1.680	-6.592	-0.480	1381.329
14.210	-1.123	-8.519	-0.500	1379.896
14.220	-1.158	-10.655	-0.529	1378.467
14.230	-2.138	-11.564	-0.439	1377.046
14.240	-3.779	-10.293	-0.160	1375.644
14.250	-5.370	-7.164	0.282	1374.283
14.260	-6.359	-3.367	0.787	1372.995
14.270	-6.551	-0.233	1.206	1371.821
14.280	-6.180	1.587	1.393	1370.800
14.290	-5.786	2.362	1.298	1369.941
14.300	-5.649	2.645	0.946	1369.237
14.310	-5.799	3.032	0.459	1368.657
14.320	-6.084	3.667	-0.000	1368.157
14.330	-6.226	4.208	-0.284	1367.697
14.340	-6.093	4.315	-0.321	1367.252
14.350	-5.694	3.861	-0.123	1366.822
14.360	-5.100	3.393	0.211	1366.423
14.370	-4.474	3.582	0.517	1366.086
14.380	-3.842	4.655	0.661	1365.834
14.390	-3.211	6.185	0.570	1365.684
14.400	-2.564	7.432	0.237	1365.642
14.410	-1.839	7.823	-0.228	1365.684
14.420	-1.089	7.540	-0.663	1365.757
14.430	-0.340	7.036	-0.959	1365.826
14.440	0.404	6.704	-1.037	1365.861
14.450	1.144	6.635	-0.910	1365.861
14.460	1.941	6.666	-0.636	1365.843
14.470	2.820	6.549	-0.315	1365.841
14.480	3.707	6.184	-0.062	1365.892
14.490	4.523	5.666	0.069	1366.008
14.500	5.175	5.112	0.029	1366.206
14.510	5.601	4.658	-0.181	1366.481
14.520	5.823	4.333	-0.513	1366.812
14.530	5.910	4.062	-0.892	1367.167
14.540	5.939	3.704	-1.240	1367.509
14.550	5.968	3.218	-1.482	1367.800
14.560	6.003	2.675	-1.592	1368.012
14.570	6.030	2.021	-1.573	1368.130
14.580	5.962	1.379	-1.450	1368.141
14.590	5.754	0.886	-1.275	1368.058
14.600	5.409	0.538	-1.092	1367.893
14.610	4.992	0.291	-0.920	1367.663
14.620	4.573	-0.104	-0.760	1367.373
14.630	4.124	-0.595	-0.600	1367.038
14.640	3.651	-1.196	-0.424	1366.668
14.650	3.141	-1.844	-0.223	1366.274
14.660	2.530	-2.345	0.004	1365.874
14.670	1.838	-2.707	0.240	1365.492
14.680	1.083	-3.094	0.447	1365.150
14.690	0.314	-3.523	0.589	1364.872
14.700	-0.412	-4.190	0.654	1364.665
14.710	-1.081	-4.960	0.629	1364.545
14.720	-1.672	-5.708	0.531	1364.518
14.730	-2.246	-6.247	0.394	1364.595
14.740	-2.880	-6.589	0.266	1364.755
14.750	-3.548	-6.703	0.170	1364.996
14.760	-4.245	-6.639	0.115	1365.320
14.770	-4.869	-6.474	0.093	1365.725
14.780	-5.378	-6.237	0.080	1366.216
14.790	-5.767	-5.945	0.053	1366.791
14.800	-5.956	-5.596	-0.010	1367.450
14.810	-6.028	-5.217	-0.120	1368.188
14.820	-5.995	-4.835	-0.274	1368.988
14.830	-5.841	-4.461	-0.457	1369.832
14.840	-5.675	-4.141	-0.644	1370.693
14.850	-5.471	-3.911	-0.816	1371.550
14.860	-5.249	-3.763	-0.958	1372.385
14.870	-5.050	-3.677	-1.060	1373.176
14.880	-4.811	-3.626	-1.119	1373.909
14.890	-4.548	-3.599	-1.142	1374.572
14.900	-4.210	-3.569	-1.137	1375.147
14.910	-3.815	-3.505	-1.114	1375.631
14.920	-3.430	-3.338	-1.079	1376.034
14.930	-2.972	-2.797	-1.026	1376.343
14.940	-2.420	-1.770	-0.938	1376.558
14.950	-1.709	-0.221	-0.795	1376.685
14.960	-0.776	1.765	-0.577	1376.737
14.970	0.285	3.834	-0.273	1376.738
14.980	1.334	5.463	0.103	1376.728
14.990	2.235	6.255	0.505	1376.756
15.000	2.934	6.262	0.861	1376.869
15.010	3.466	5.900	1.078	1377.117
15.020	3.901	5.525	1.084	1377.520
15.030	4.303	5.171	0.848	1378.075
15.040	4.694	4.723	0.363	1378.768
15.050	5.020	4.106	-0.312	1379.555
15.060	5.265	3.468	-1.075	1380.370
15.070	5.434	3.103	-1.809	1381.142
15.080	5.581	3.287	-2.397	1381.796
15.090	5.770	4.026	-2.765	1382.279
15.100	6.011	5.099	-2.890	1382.566
15.110	6.258	6.169	-2.794	1382.653
15.120	6.413	6.962	-2.536	1382.560
15.130	6.396	7.430	-2.188	1382.318
15.140	6.146	7.604	-1.817	1381.961
15.150	5.682	7.521	-1.472	1381.520
15.160	5.096	7.189	-1.178	1381.018
15.170	4.423	6.621	-0.918	1380.478
15.180	3.742	5.846	-0.668	1379.916
15.190	3.095	4.815	-0.409	1379.339
15.200	2.306	3.582	-0.135	1378.764
15.210	1.411	2.215	0.135	1378.203
15.220	0.484	0.848	0.366	1377.671
15.230	-0.487	-0.372	0.529	1377.177
15.240	-1.338	-1.231	0.593	1376.734
15.250	-1.943	-1.654	0.552	1376.346
15.260	-2.345	-1.736	0.426	1376.014
15.270	-2.671	-1.689	0.258	1375.728
15.280	-3.038	-1.742	0.095	1375.476
15.290	-3.563	-2.009	-0.022	1375.249
15.300	-4.228	-2.436	-0.074	1375.041
15.310	-4.903	-2.905	-0.062	1374.855
15.320	-5.509	-3.289	-0.006	1374.701
15.330	-5.916	-3.516	0.065	1374.603
15.340	-6.168	-3.641	0.122	1374.565
15.350	-6.335	-3.753	0.147	1374.597
15.360	-6.415	-3.930	0.137	1374.708
15.370	-6.453	-4.203	0.098	1374.903
15.380	-6.423	-4.512	0.048	1375.181
15.390	-6.269	-4.764	0.005	1375.541
15.400	-6.009	-4.856	-0.013	1375.979
15.410	-5.631	-4.731	-0.001	1376.491
15.420	-5.170	-4.422	0.036	1377.073
15.430	-4.679	-4.081	0.076	1377.722
15.440	-4.171	-3.940	0.095	1378.433
15.450	-3.619	-4.165	0.072	1379.201
15.460	-3.006	-4.627	0.004	1380.018
15.470	-2.356	-5.013	-0.100	1380.874
15.480	-1.712	-4.982	-0.223	1381.755
15.490	-1.125	-4.416	-0.346	1382.643
15.500	-0.631	-3.610	-0.453	1383.518
15.510	-0.131	-2.851	-0.540	1384.364
15.520	0.439	-2.374	-0.613	1385.167
15.530	1.114	-2.242	-0.681	1385.915
15.540	1.833	-2.267	-0.747	1386.602
15.550	2.536	-2.163	-0.808	1387.222
15.560	3.205	-1.707	-0.852	1387.772
15.570	3.810	-0.898	-0.865	1388.249
15.580	4.418	0.043	-0.832	1388.656
15.590	5.027	0.878	-0.743	1389.002
15.600	5.657	1.497	-0.595	1389.301
15.610	6.256	1.941	-0.398	1389.575
15.620	6.724	2.326	-0.177	1389.851
15.630	6.954	2.751	0.021	1390.157
15.640	6.958	3.216	0.150	1390.517
15.650	6.752	3.638	0.170	1390.945
15.660	6.406	3.896	0.055	1391.446
15.670	6.022	3.909	-0.188	1392.007
15.680	5.619	3.695	-0.519	1392.603
15.690	5.226	3.371	-0.880	1393.198
15.700	4.854	3.163	-1.202	1393.750
15.710	4.459	3.227	-1.431	1394.225
15.720	4.010	3.535	-1.534	1394.597
15.730	3.498	3.914	-1.502	1394.853
15.740	2.910	4.168	-1.353	1394.996
15.750	2.260	4.208	-1.120	1395.035
15.760	1.574	4.078	-0.843	1394.991
15.770	0.840	3.918	-0.563	1394.888
15.780	0.060	3.821	-0.297	1394.753
15.790	-0.776	3.782	-0.051	1394.608
15.800	-1.677	3.709	0.181	1394.480
15.810	-2.558	3.507	0.413	1394.394
15.820	-3.323	3.190	0.649	1394.377
15.830	-3.894	2.796	0.875	1394.460
15.840	-4.272	2.310	1.059	1394.670
15.850	-4.558	1.740	1.164	1395.010
15.860	-4.730	1.103	1.145	1395.504
15.870	-4.799	0.436	0.971	1396.157
15.880	-4.922	-0.141	0.673	1396.932
15.890	-5.060	-0.505	0.278	1397.812
15.900	-5.175	-0.673	-0.157	1398.762
15.910	-5.249	-0.808	-0.563	1399.742
15.920	-5.341	-1.099	-0.878	1400.717
15.930	-5.542	-1.676	-1.061	1401.655
15.940	-5.859	-2.477	-1.103	1402.541
15.950	-6.191	-3.273	-1.026	1403.375
15.960	-6.384	-3.820	-0.870	1404.167
15.970	-6.263	-3.972	-0.682	1404.935
15.980	-5.774	-3.764	-0.505	1405.696
15.990	-5.023	-3.418	-0.371	1406.459
16.000	-4.167	-3.181	-0.290	1407.232
16.010	-3.355	-3.183	-0.258	1408.013
16.020	-2.628	-3.359	-0.253	1408.799
16.030	-1.943	-3.574	-0.262	1409.587
16.040	-1.232	-3.670	-0.269	1410.372
16.050	-0.456	-3.548	-0.270	1411.150
16.060	0.364	-3.272	-0.272	1411.918
16.070	1.146	-2.982	-0.295	1412.673
16.080	1.819	-2.820	-0.357	1413.410
16.090	2.373	-2.816	-0.470	1414.122
16.100	2.851	-2.842	-0.630	1414.799
16.110	3.338	-2.684	-0.810	1415.427
16.120	3.876	-2.251	-0.968	1415.988
16.130	4.445	-1.681	-1.070	1416.471
16.140	5.002	-1.179	-1.091	1416.868
16.150	5.477	-0.908	-1.024	1417.181
16.160	5.821	-0.850	-0.885	1417.417
16.170	6.030	-0.843	-0.704	1417.593
16.180	6.127	-0.687	-0.520	1417.727
16.190	6.144	-0.259	-0.375	1417.839
16.200	6.095	0.352	-0.302	1417.943
16.210	5.959	0.939	-0.309	1418.046
16.220	5.711	1.343	-0.386	1418.146
16.230	5.369	1.524	-0.510	1418.237
16.240	4.940	1.608	-0.647	1418.304
16.250	4.484	1.768	-0.765	1418.331
16.260	4.049	2.105	-0.840	1418.303
16.270	3.608	2.573	-0.867	1418.212
16.280	3.152	3.037	-0.851	1418.054
16.290	2.656	3.397	-0.802	1417.831
16.300	2.080	3.623	-0.734	1417.544
16.310	1.456	3.777	-0.660	1417.202
16.320	0.833	3.968	-0.583	1416.812
16.330	0.234	4.240	-0.503	1416.381
16.340	-0.312	4.538	-0.415	1415.920
16.350	-0.859	4.733	-0.311	1415.438
16.360	-1.458	4.704	-0.187	1414.951
16.370	-2.102	4.426	-0.047	1414.473
16.380	-2.783	3.965	0.096	1414.018
16.390	-3.416	3.432	0.225	1413.603
16.400	-3.943	2.923	0.318	1413.242
16.410	-4.353	2.462	0.362	1412.945
16.420	-4.630	1.958	0.350	1412.719
16.430	-4.872	1.286	0.289	1412.565
16.440	-5.151	0.437	0.197	1412.478
16.450	-5.365	-0.439	0.097	1412.449
16.460	-5.507	-1.080	0.007	1412.469
16.470	-5.475	-1.329	-0.063	1412.530
16.480	-5.270	-1.277	-0.118	1412.625
16.490	-4.971	-1.170	-0.173	1412.747
16.500	-4.607	-1.266	-0.242	1412.888
16.510	-4.285	-1.642	-0.337	1413.038
16.520	-4.008	-2.141	-0.460	1413.184
16.530	-3.730	-2.519	-0.600	1413.315
16.540	-3.412	-2.620	-0.732	1413.414
16.550	-3.025	-2.503	-0.825	1413.465
16.560	-2.553	-2.385	-0.856	1413.458
16.570	-2.067	-2.656	-0.803	1413.387
16.580	-1.623	-3.059	-0.674	1413.255
16.590	-1.273	-3.256	-0.501	1413.076
16.600	-0.917	-3.267	-0.319	1412.864
16.610	-0.433	-3.328	-0.165	1412.638
16.620	0.187	-3.650	-0.061	1412.413
16.630	0.841	-4.343	-0.015	1412.200
16.640	1.424	-5.212	-0.018	1412.010
16.650	1.935	-5.800	-0.051	1411.846
16.660	2.462	-5.777	-0.098	1411.711
16.670	3.091	-5.147	-0.153	1411.601
16.680	3.802	-4.264	-0.226	1411.509
16.690	4.435	-3.605	-0.336	1411.426
16.700	4.847	-3.373	-0.493	1411.341
16.710	5.010	-3.425	-0.694	1411.238
16.720	4.986	-3.424	-0.915	1411.099
16.730	4.910	-3.083	-1.121	1410.901
16.740	4.896	-2.394	-1.276	1410.621
16.750	4.966	-1.568	-1.351	1410.242
16.760	5.034	-0.884	-1.335	1409.754
16.770	4.996	-0.468	-1.229	1409.157
16.780	4.786	-0.229	-1.051	1408.459
16.790	4.412	0.078	-0.830	1407.675
16.800	3.953	0.671	-0.596	1406.825
16.810	3.487	1.550	-0.379	1405.930
16.820	3.046	2.500	-0.195	1405.011
16.830	2.590	3.270	-0.050	1404.090
16.840	2.030	3.781	0.066	1403.183
16.850	1.311	4.075	0.172	1402.307
16.860	0.523	4.306	0.277	1401.472
16.870	-0.269	4.534	0.378	1400.686
16.880	-0.954	4.751	0.463	1399.964
16.890	-1.500	4.881	0.516	1399.320
16.900	-1.924	4.850	0.521	1398.761
16.910	-2.235	4.643	0.464	1398.290
16.920	-2.485	4.346	0.340	1397.903
16.930	-2.714	4.118	0.153	1397.588
16.940	-2.924	4.082	-0.076	1397.328
16.950	-3.119	4.243	-0.318	1397.102
16.960	-3.308	4.514	-0.543	1396.890
16.970	-3.483	4.777	-0.721	1396.676
16.980	-3.638	4.940	-0.831	1396.444
16.990	-3.756	4.952	-0.862	1396.185
17.000	-3.853	4.838	-0.820	1395.894
17.010	-3.931	4.666	-0.723	1395.575
17.020	-3.998	4.479	-0.595	1395.235
17.030	-4.029	4.091	-0.453	1394.883
17.040	-4.022	3.416	-0.303	1394.528
17.050	-3.982	2.485	-0.143	1394.178
17.060	-3.919	1.458	0.030	1393.842
17.070	-3.841	0.561	0.223	1393.530
17.080	-3.668	-0.081	0.431	1393.257
17.090	-3.321	-0.501	0.636	1393.037
17.100	-2.774	-0.838	0.801	1392.888
17.110	-2.047	-1.198	0.888	1392.823
17.120	-1.244	-1.580	0.858	1392.847
17.130	-0.509	-1.875	0.695	1392.958
17.140	0.072	-1.996	0.416	1393.137
17.150	0.487	-1.995	0.067	1393.360
17.160	0.846	-2.059	-0.287	1393.594
17.170	1.251	-2.408	-0.581	1393.806
17.180	1.739	-3.135	-0.762	1393.972
17.190	2.313	-4.096	-0.808	1394.078
17.200	2.880	-5.016	-0.735	1394.128
17.210	3.335	-5.669	-0.582	1394.135
17.220	3.669	-5.971	-0.408	1394.123
17.230	3.885	-6.011	-0.268	1394.113
17.240	4.045	-5.940	-0.203	1394.122
17.250	4.207	-5.880	-0.226	1394.160
17.260	4.306	-5.833	-0.321	1394.225
17.270	4.319	-5.698	-0.452	1394.308
17.280	4.231	-5.402	-0.577	1394.396
17.290	4.037	-4.944	-0.663	1394.474
17.300	3.831	-4.421	-0.696	1394.529
17.310	3.621	-3.935	-0.679	1394.552
17.320	3.420	-3.561	-0.630	1394.540
17.330	3.232	-3.307	-0.576	1394.492
17.340	2.986	-3.071	-0.533	1394.408
17.350	2.687	-2.709	-0.507	1394.282
17.360	2.349	-2.218	-0.484	1394.120
17.370	1.971	-1.612	-0.448	1393.921
17.380	1.590	-0.963	-0.382	1393.683
17.390	1.177	-0.342	-0.267	1393.410
17.400	0.717	0.236	-0.101	1393.112
17.410	0.175	0.799	0.109	1392.805
17.420	-0.454	1.380	0.342	1392.511
17.430	-1.110	1.987	0.565	1392.255
17.440	-1.747	2.572	0.743	1392.065
17.450	-2.318	3.099	0.847	1391.965
17.460	-2.797	3.524	0.864	1391.971
17.470	-3.223	3.818	0.796	1392.090
17.480	-3.608	3.989	0.657	1392.325
17.490	-3.924	4.073	0.472	1392.668
17.500	-4.184	4.107	0.268	1393.106
17.510	-4.340	4.143	0.064	1393.624
17.520	-4.387	4.263	-0.127	1394.206
17.530	-4.365	4.507	-0.303	1394.837
17.540	-4.285	4.883	-0.469	1395.501
17.550	-4.210	5.346	-0.630	1396.188
17.560	-4.155	5.806	-0.789	1396.885
17.570	-4.040	6.223	-0.939	1397.577
17.580	-3.910	6.581	-1.069	1398.255
17.590	-3.740	6.860	-1.164	1398.908
17.600	-3.483	7.047	-1.212	1399.525
17.610	-3.225	7.114	-1.208	1400.100
17.620	-2.957	7.035	-1.158	1400.627
17.630	-2.635	6.778	-1.075	1401.106
17.640	-2.301	6.342	-0.978	1401.537
17.650	-1.878	5.740	-0.884	1401.918
17.660	-1.421	5.048	-0.804	1402.254
17.670	-0.949	4.248	-0.742	1402.541
17.680	-0.405	3.263	-0.690	1402.777
17.690	0.202	2.021	-0.629	1402.957
17.700	0.871	0.575	-0.538	1403.083
17.710	1.601	-0.969	-0.399	1403.159
17.720	2.456	-2.609	-0.205	1403.196
17.730	3.597	-4.225	0.042	1403.216
17.740	4.251	-4.820	0.297	1403.250
17.750	3.970	-4.070	0.485	1403.327
17.760	3.213	-2.682	0.531	1403.470
17.770	2.748	-1.749	0.390	1403.683
17.780	2.973	-1.851	0.063	1403.948
17.790	3.756	-2.922	-0.402	1404.238
17.800	4.646	-4.529	-0.914	1404.519
17.810	5.172	-6.054	-1.362	1404.760
17.820	5.118	-7.041	-1.646	1404.932
17.830	4.592	-7.376	-1.697	1405.017
17.840	4.027	-7.426	-1.525	1405.013
17.850	3.765	-7.615	-1.211	1404.940
17.860	3.821	-8.067	-0.866	1404.829
17.870	3.970	-8.606	-0.586	1404.715
17.880	3.888	-8.865	-0.444	1404.632
17.890	3.361	-8.561	-0.452	1404.595
17.900	2.468	-7.748	-0.558	1404.597
17.910	1.555	-6.756	-0.688	1404.618
17.920	0.925	-5.942	-0.774	1404.634
17.930	0.634	-5.504	-0.770	1404.624
17.940	0.533	-5.364	-0.668	1404.584
17.950	0.354	-5.260	-0.494	1404.518
17.960	-0.119	-4.904	-0.299	1404.438
17.970	-0.788	-4.268	-0.144	1404.357
17.980	-1.422	-3.556	-0.068	1404.289
17.990	-1.850	-2.956	-0.069	1404.228
18.000	-2.016	-2.617	-0.130	1404.174
18.010	-2.094	-2.421	-0.200	1404.116
18.020	-2.257	-2.176	-0.243	1404.049
18.030	-2.593	-1.749	-0.216	1403.968
18.040	-3.053	-1.093	-0.111	1403.877
18.050	-3.536	-0.286	0.047	1403.789
18.060	-3.938	0.597	0.233	1403.725
18.070	-4.206	1.478	0.412	1403.706
18.080	-4.362	2.285	0.551	1403.754
18.090	-4.468	3.002	0.628	1403.892
18.100	-4.583	3.680	0.635	1404.132
18.110	-4.704	4.343	0.577	1404.486
18.120	-4.734	4.952	0.473	1404.957
18.130	-4.605	5.459	0.344	1405.543
18.140	-4.293	5.835	0.204	1406.238
18.150	-3.806	6.121	0.054	1407.032
18.160	-3.229	6.377	-0.115	1407.915
18.170	-2.650	6.650	-0.315	1408.872
18.180	-2.115	6.964	-0.553	1409.886
18.190	-1.631	7.314	-0.826	1410.937
18.200	-1.185	7.650	-1.115	1412.001
18.210	-0.728	7.891	-1.390	1413.053
18.220	-0.212	7.990	-1.617	1414.068
18.230	0.333	7.966	-1.776	1415.025
18.240	0.873	7.894	-1.860	1415.907
18.250	1.377	7.839	-1.882	1416.702
18.260	1.826	7.803	-1.869	1417.406
18.270	2.246	7.726	-1.852	1418.016
18.280	2.639	7.548	-1.854	1418.531
18.290	3.000	7.254	-1.883	1418.948
18.300	3.324	6.886	-1.936	1419.257
18.310	3.591	6.531	-1.994	1419.447
18.320	3.796	6.252	-2.035	1419.506
18.330	3.958	6.034	-2.039	1419.427
18.340	4.107	5.724	-1.988	1419.201
18.350	4.281	5.136	-1.871	1418.830
18.360	4.504	3.989	-1.681	1418.317
18.370	4.776	1.962	-1.410	1417.673
18.380	5.041	-0.955	-1.046	1416.917
18.390	5.309	-4.279	-0.584	1416.081
18.400	5.548	-7.270	-0.046	1415.207
18.410	5.484	-9.050	0.510	1414.353
18.420	4.971	-9.237	0.999	1413.580
18.430	4.090	-8.263	1.325	1412.943
18.440	3.095	-6.816	1.409	1412.471
18.450	2.350	-5.567	1.207	1412.171
18.460	2.001	-4.754	0.728	1412.022
18.470	1.663	-4.011	0.050	1411.972
18.480	1.078	-3.156	-0.705	1411.954
18.490	0.415	-2.464	-1.388	1411.891
18.500	-0.109	-2.414	-1.858	1411.709
18.510	-0.447	-3.211	-2.039	1411.366
18.520	-0.653	-4.771	-1.919	1410.856
18.530	-0.955	-6.800	-1.544	1410.203
18.540	-1.434	-8.812	-1.000	1409.460
18.550	-2.067	-10.345	-0.389	1408.696
18.560	-2.761	-11.098	0.184	1407.987
18.570	-3.249	-11.014	0.639	1407.393
18.580	-3.427	-10.300	0.922	1406.962
18.590	-3.380	-9.214	1.018	1406.714
18.600	-3.176	-7.968	0.942	1406.648
18.610	-3.055	-6.683	0.729	1406.744
18.620	-3.104	-5.362	0.427	1406.969
18.630	-3.229	-4.028	0.083	1407.284
18.640	-3.352	-2.828	-0.258	1407.645
18.650	-3.321	-1.970	-0.564	1408.011
18.660	-3.113	-1.565	-0.810	1408.348
18.670	-2.840	-1.496	-0.979	1408.628
18.680	-2.599	-1.479	-1.065	1408.830
18.690	-2.505	-1.214	-1.071	1408.942
18.700	-2.540	-0.642	-1.008	1408.960
18.710	-2.606	0.074	-0.887	1408.892
18.720	-2.682	0.735	-0.712	1408.749
18.730	-2.699	1.283	-0.477	1408.549
18.740	-2.575	1.971	-0.179	1408.320
18.750	-2.284	3.175	0.177	1408.096
18.760	-1.759	4.885	0.555	1407.920
18.770	-1.075	6.659	0.897	1407.841
18.780	-0.285	7.882	1.132	1407.906
18.790	0.519	8.159	1.196	1408.150
18.800	1.164	7.545	1.047	1408.587
18.810	1.604	6.588	0.687	1409.199
18.820	1.872	5.873	0.155	1409.947
18.830	2.060	5.716	-0.476	1410.776
18.840	2.279	6.002	-1.111	1411.623
18.850	2.552	6.359	-1.656	1412.431
18.860	2.846	6.496	-2.039	1413.154
18.870	3.086	6.371	-2.223	1413.754
18.880	3.195	6.218	-2.218	1414.213
18.890	3.164	6.323	-2.077	1414.528
18.900	3.034	6.752	-1.871	1414.713
18.910	2.855	7.291	-1.665	1414.790
18.920	2.681	7.617	-1.493	1414.780
18.930	2.494	7.590	-1.362	1414.701
18.940	2.266	7.306	-1.249	1414.559
18.950	2.046	6.914	-1.128	1414.359
18.960	1.845	6.517	-0.979	1414.103
18.970	1.719	6.036	-0.797	1413.797
18.980	1.656	5.316	-0.596	1413.449
18.990	1.564	4.234	-0.404	1413.069
19.000	1.473	2.834	-0.258	1412.667
19.010	1.324	1.343	-0.168	1412.247
19.020	1.107	-0.072	-0.137	1411.812
19.030	0.881	-1.292	-0.143	1411.362
19.040	0.674	-2.428	-0.132	1410.893
19.050	0.428	-3.579	-0.073	1410.414
19.060	0.139	-4.663	0.051	1409.938
19.070	-0.281	-5.559	0.220	1409.481
19.080	-0.791	-6.109	0.405	1409.068
19.090	-1.330	-6.223	0.558	1408.726
19.100	-1.868	-6.043	0.631	1408.478
19.110	-2.229	-5.706	0.591	1408.338
19.120	-2.460	-5.327	0.428	1408.306
19.130	-2.646	-5.068	0.168	1408.370
19.140	-2.801	-4.849	-0.139	1408.505
19.150	-3.067	-4.747	-0.432	1408.684
19.160	-3.324	-4.759	-0.653	1408.883
19.170	-3.484	-4.934	-0.770	1409.081
19.180	-3.489	-5.405	-0.781	1409.272
19.190	-3.300	-6.207	-0.713	1409.459
19.200	-2.968	-7.272	-0.605	1409.655
19.210	-2.574	-8.216	-0.502	1409.877
19.220	-2.173	-8.702	-0.432	1410.141
19.230	-1.805	-8.661	-0.413	1410.452
19.240	-1.481	-8.239	-0.447	1410.807
19.250	-1.200	-7.654	-0.529	1411.194
19.260	-0.950	-7.064	-0.645	1411.594
19.270	-0.716	-6.446	-0.780	1411.985
19.280	-0.477	-5.720	-0.916	1412.343
19.290	0.027	-4.873	-1.038	1412.647
19.300	0.213	-3.982	-1.139	1412.875
19.310	0.277	-3.192	-1.210	1413.007
19.320	0.414	-2.558	-1.244	1413.031
19.330	0.734	-1.959	-1.226	1412.937
19.340	1.191	-1.267	-1.145	1412.725
19.350	1.697	-0.400	-0.990	1412.399
19.360	2.119	0.651	-0.756	1411.974
19.370	2.398	1.767	-0.449	1411.473
19.380	2.547	2.739	-0.086	1410.928
19.390	2.632	3.425	0.292	1410.384
19.400	2.729	3.851	0.636	1409.880
19.410	2.840	4.146	0.895	1409.454
19.420	2.952	4.479	1.015	1409.137
19.430	3.029	4.932	0.965	1408.948
19.440	3.036	5.473	0.747	1408.886
19.450	3.024	5.987	0.393	1408.937
19.460	3.009	6.342	-0.031	1409.072
19.470	3.011	6.502	-0.453	1409.257
19.480	3.034	6.502	-0.807	1409.454
19.490	3.003	6.449	-1.047	1409.630
19.500	2.890	6.452	-1.166	1409.762
19.510	2.719	6.521	-1.183	1409.837
19.520	2.513	6.581	-1.139	1409.853
19.530	2.308	6.552	-1.074	1409.813
19.540	2.076	6.380	-1.023	1409.722
19.550	1.807	6.089	-1.000	1409.582
19.560	1.497	5.764	-0.996	1409.390
19.570	1.107	5.480	-0.988	1409.142
19.580	0.681	5.243	-0.950	1408.836
19.590	0.252	4.970	-0.856	1408.471
19.600	-0.241	4.570	-0.696	1408.055
19.610	-0.801	4.031	-0.470	1407.598
19.620	-1.494	3.364	-0.197	1407.125
19.630	-2.230	2.625	0.098	1406.662
19.640	-2.858	1.894	0.382	1406.240
19.650	-3.373	1.175	0.626	1405.883
19.660	-3.643	0.519	0.798	1405.612
19.670	-3.660	-0.027	0.867	1405.448
19.680	-3.509	-0.480	0.815	1405.396
19.690	-3.329	-0.858	0.640	1405.452
19.700	-3.313	-1.186	0.363	1405.599
19.710	-3.534	-1.535	0.031	1405.816
19.720	-3.888	-1.995	-0.283	1406.065
19.730	-4.344	-2.637	-0.526	1406.323
19.740	-4.859	-3.461	-0.670	1406.578
19.750	-5.416	-4.489	-0.688	1406.826
19.760	-6.025	-5.702	-0.580	1407.079
19.770	-6.599	-6.969	-0.365	1407.359
19.780	-7.082	-8.094	-0.084	1407.700
19.790	-7.354	-8.882	0.204	1408.142
19.800	-7.144	-9.068	0.440	1408.720
19.810	-6.383	-8.497	0.569	1409.459
19.820	-5.094	-7.327	0.553	1410.358
19.830	-3.473	-5.949	0.376	1411.397
19.840	-1.931	-4.771	0.045	1412.539
19.850	-0.844	-4.082	-0.401	1413.730
19.860	-0.364	-3.910	-0.891	1414.915
19.870	-0.350	-4.057	-1.341	1416.043
19.880	-0.410	-4.252	-1.662	1417.067
19.890	-0.216	-4.339	-1.796	1417.954
19.900	0.326	-4.356	-1.733	1418.691
19.910	1.069	-4.436	-1.508	1419.278
19.920	1.704	-4.689	-1.187	1419.733
19.930	2.014	-5.044	-0.846	1420.086
19.940	2.033	-5.206	-0.543	1420.369
19.950	1.976	-4.855	-0.306	1420.609
19.960	2.111	-3.873	-0.132	1420.828
19.970	2.527	-2.458	0.008	1421.041
19.980	3.106	-0.901	0.140	1421.260
19.990	3.603	0.514	0.280	1421.500
20.000	3.837	1.638	0.425	1421.778
